Folder: xrd_clustering/notebooks/data/xrd_data (part 31)

File: ML_20220720_14_SJD_4_LaB6-1min.csv
;,2THETA,
5.0000,107
5.1858,87
5.3715,97
5.5573,99
5.7430,69
5.9288,83
6.1145,81
6.3003,85
6.4860,87
6.6718,55
6.8576,52
7.0433,66
7.2291,49
7.4148,52
7.6006,56
7.7863,59
7.9721,79
8.1579,88
8.3436,68
8.5294,69
8.7151,75
8.9009,82
9.0866,98
9.2724,80
9.4581,80
9.6439,91
9.8297,71
10.0154,86
10.2012,85
10.3869,84
10.5727,101
10.7584,80
10.9442,74
11.1299,83
11.3157,89
11.5015,79
11.6872,79
11.8730,74
12.0587,79
12.2445,94
12.4302,69
12.6160,78
12.8018,73
12.9875,93
13.1733,87
13.3590,90
13.5448,68
13.7305,59
13.9163,77
14.1020,73
14.2878,83
14.4736,65
14.6593,62
14.8451,59
15.0308,62
15.2166,62
15.4023,49
15.5881,63
15.7738,61
15.9596,72
16.1454,57
16.3311,64
16.5169,60
16.7026,51
16.8884,56
17.0741,56
17.2599,69
17.4457,63
17.6314,55
17.8172,62
18.0029,61
18.1887,48
18.3744,62
18.5602,80
18.7459,73
18.9317,57
19.1175,59
19.3032,59
19.4890,85
19.6747,70
19.8605,63
20.0462,71
20.2320,56
20.4177,64
20.6035,62
20.7893,65
20.9750,65
21.1608,78
21.3465,157
21.5323,68
21.7180,77
21.9038,83
22.0896,73
22.2753,70
22.4611,65
22.6468,75
22.8326,81
23.0183,70
23.2041,63
23.3898,77
23.5756,75
23.7614,68
23.9471,71
24.1329,87
24.3186,83
24.5044,68
24.6901,64
24.8759,59
25.0616,75
25.2474,70
25.4332,81
25.6189,74
25.8047,60
25.9904,68
26.1762,68
26.3619,78
26.5477,86
26.7335,64
26.9192,73
27.1050,63
27.2907,86
27.4765,71
27.6622,77
27.8480,65
28.0337,64
28.2195,57
28.4053,67
28.5910,60
28.7768,76
28.9625,75
29.1483,60
29.3340,56
29.5198,60
29.7055,63
29.8913,63
30.0771,59
30.2628,53
30.4486,80
30.6343,68
30.8201,46
31.0058,69
31.1916,54
31.3774,43
31.5631,64
31.7489,38
31.9346,62
32.1204,51
32.3061,43
32.4919,62
32.6776,33
32.8634,39
33.0492,45
33.2349,44
33.4207,33
33.6064,41
33.7922,47
33.9779,42
34.1637,50
34.3494,47
34.5352,44
34.7210,61
34.9067,43
35.0925,34
35.2782,30
35.4640,25
35.6497,34
35.8355,39
36.0213,32
36.2070,41
36.3928,29
36.5785,27
36.7643,33
36.9500,26
37.1358,38
37.3215,39
37.5073,54
37.6931,31
37.8788,27
38.0646,40
38.2503,44
38.4361,31
38.6218,28
38.8076,30
38.9933,37
39.1791,33
39.3649,40
39.5506,35
39.7364,15
39.9221,34
40.1079,32
40.2936,29
40.4794,23
40.6652,25
40.8509,31
41.0367,28
41.2224,28
41.4082,25
41.5939,27
41.7797,27
41.9654,22
42.1512,34
42.3370,26
42.5227,24
42.7085,20
42.8942,25
43.0800,28
43.2657,35
43.4515,38
43.6372,38
43.8230,34
44.0088,23
44.1945,22
44.3803,39
44.5660,35
44.7518,33
44.9375,20
45.1233,26
45.3091,18
45.4948,26
45.6806,29
45.8663,20
46.0521,29
46.2378,29
46.4236,25
46.6093,18
46.7951,21
46.9809,24
47.1666,33
47.3524,20
47.5381,25
47.7239,29
47.9096,16
48.0954,17
48.2811,23
48.4669,23
48.6527,29
48.8384,28
49.0242,26
49.2099,21
49.3957,20
49.5814,21
49.7672,20
49.9530,34
50.1387,30
50.3245,24
50.5102,19
50.6960,26
50.8817,20
51.0675,22
51.2532,21
51.4390,23
51.6248,23
51.8105,17
51.9963,22
52.1820,16
52.3678,17
52.5535,30
52.7393,20
52.9250,12
53.1108,19
53.2966,22
53.4823,22
53.6681,25
53.8538,21
54.0396,29
54.2253,15
54.4111,30
54.5969,21
54.7826,25
54.9684,27
55.1541,21
55.3399,21
55.5256,20
55.7114,18
55.8971,24
56.0829,16
56.2687,25
56.4544,18
56.6402,19
56.8259,32
57.0117,13
57.1974,29
57.3832,18
57.5689,23
57.7547,27
57.9405,26
58.1262,14
58.3120,21
58.4977,21
58.6835,22
58.8692,15
59.0550,20
59.2408,13
59.4265,25
59.6123,16
59.7980,21
59.9838,29
60.0024,17

File: ML_20220720_15_SJD_4_LaB6-1min.uxd
; (content of file Y:\Sam\Apurva-07-20-2022\puck2\ML_20220720_15_SJD_0_LaB6-1min.raw)
_FILEVERSION = 3
_SAMPLE = ML_20220720_15_SJD_0_LaB6-1mi
_+SAMPLE =
_SITE = USA
_USER = Administrator
_GONIOMETER_CODE = 20
; Goniometer : D8 theta/2theta, stage : Unknown
_ATTACHMENTS_CODE = 0
_GONIOMETER_RADIUS = 200.5
_FIXED_DIVSLIT = 0.6
_FIXED_SAMPLESLIT = 0
_SOLLER_SLITS = 2
_FIXED_DETSLIT = 9.55
_MONOCHROMATOR = 0
; Incident beam monochromator : None
_SOLLER_SLITS_2 = N
_THIN_FILM = N
_BETA_FILTER = Y
_FIXED_ANTISLIT = 5.89
_ANALYZER_CODE = 0
; Received beam analyzer : None
_DATEMEASURED = "25-Jul-2022 18:14:18"
_WL_UNIT = A
_WL1 = 1.5406
_WL2 = 1.54439
_WL3 = 1.39222
_WLRATIO = 0.5
_ANODE = Cu
_V4_INF_CREATOR = XRDWizard
_V4_INF_CREATOR_VERSION = V2.9.0.22
_V4_INF_WIZARD_VERSION = V2.9.0.22
_V4_INF_WIZARD_ADDINS = V2.9.0.22
_V4_INF_WIZARD_DOCTYPE = XRD
_V4_INF_OSUSER = McQueenLab
_V4_INF_USER = Administrator
_V4_INF_SITE = USA
_V4_INF_SAMPLEID = ML_20220720_15_SJD_0_LaB6-1mi

; Data for range 1
_DRIVE = COUPLED
_STEPTIME = 4.23
_STEPSIZE = 0.0185756
_STEPMODE = C
_START = 5
_THETA = 2.5
_2THETA = 5
_KHI = 0
_PHI = 0
_X = 0
_Y = 0
_Z = 0
_DETECTOR = 5
; Detector type : Unknown
_DETECTORSLIT = unkn
_AUX1 = 0
_AUX2 = 0
_AUX3 = 0
_TIMESTARTED = 16
_TEMP_RATE = -1
_TEMP_DELAY = -1
_KV = 40
_MA = 40
_RANGE_WL = 1.5406
_3DPLANE = 0
_V4_ADDITIONALDETECTOR = 257
_V4_PSD2THETA = 3.4436
_V4_PSDCHANNEL1 = 0
_V4_PSDAPERTURE = 12.68
_V4_PSDTYPE = 5
_V4_PSDFIXED = 0
_V4_COUNTERS_MASK = 4096
_V4_DRIVES_MASK = 0
_V4_ENCODERS_MASK = 0
_2THETACOUNTS = 1
; 2THETA  PSD
   5.0000         83
   5.1858        109
   5.3715         85
   5.5573         73
   5.7430         85
   5.9288         69
   6.1145         81
   6.3003         57
   6.4860         48
   6.6718         60
   6.8576         50
   7.0433         64
   7.2291         62
   7.4148         66
   7.6006         62
   7.7863         62
   7.9721         65
   8.1579         87
   8.3436         77
   8.5294         78
   8.7151         54
   8.9009         76
   9.0866         80
   9.2724         86
   9.4581         92
   9.6439         85
   9.8297        100
  10.0154        102
  10.2012         93
  10.3869         97
  10.5727         95
  10.7584         81
  10.9442         67
  11.1299         98
  11.3157         79
  11.5015        101
  11.6872         88
  11.8730         79
  12.0587         72
  12.2445         88
  12.4302         87
  12.6160         83
  12.8018         92
  12.9875         88
  13.1733         64
  13.3590         86
  13.5448         70
  13.7305         67
  13.9163         79
  14.1020         54
  14.2878         69
  14.4736         62
  14.6593         74
  14.8451         61
  15.0308         70
  15.2166         64
  15.4023         63
  15.5881         66
  15.7738         73
  15.9596         70
  16.1454         47
  16.3311         65
  16.5169         56
  16.7026         59
  16.8884         61
  17.0741         57
  17.2599         74
  17.4457         48
  17.6314         65
  17.8172         53
  18.0029         55
  18.1887         49
  18.3744         62
  18.5602         60
  18.7459         59
  18.9317         63
  19.1175         69
  19.3032         61
  19.4890         71
  19.6747         58
  19.8605         55
  20.0462         58
  20.2320         70
  20.4177         58
  20.6035         66
  20.7893         73
  20.9750         76
  21.1608         79
  21.3465        165
  21.5323         77
  21.7180         66
  21.9038         91
  22.0896         88
  22.2753         88
  22.4611         87
  22.6468         75
  22.8326         89
  23.0183         75
  23.2041         70
  23.3898         74
  23.5756         93
  23.7614         95
  23.9471         55
  24.1329         79
  24.3186         96
  24.5044         73
  24.6901         73
  24.8759         75
  25.0616         74
  25.2474         77
  25.4332         78
  25.6189         68
  25.8047         70
  25.9904         77
  26.1762         81
  26.3619         64
  26.5477         81
  26.7335         61
  26.9192         60
  27.1050         67
  27.2907        103
  27.4765         67
  27.6622         65
  27.8480         55
  28.0337         82
  28.2195         78
  28.4053         68
  28.5910         57
  28.7768         63
  28.9625         48
  29.1483         59
  29.3340         57
  29.5198         70
  29.7055         57
  29.8913         67
  30.0771         60
  30.2628         56
  30.4486         81
  30.6343         54
  30.8201         48
  31.0058         60
  31.1916         48
  31.3774         39
  31.5631         55
  31.7489         57
  31.9346         67
  32.1204         42
  32.3061         49
  32.4919         58
  32.6776         46
  32.8634         38
  33.0492         52
  33.2349         36
  33.4207         29
  33.6064         39
  33.7922         52
  33.9779         46
  34.1637         52
  34.3494         55
  34.5352         41
  34.7210         65
  34.9067         27
  35.0925         40
  35.2782         39
  35.4640         33
  35.6497         52
  35.8355         33
  36.0213         39
  36.2070         34
  36.3928         27
  36.5785         39
  36.7643         36
  36.9500         39
  37.1358         39
  37.3215         32
  37.5073         43
  37.6931         31
  37.8788         49
  38.0646         30
  38.2503         41
  38.4361         27
  38.6218         23
  38.8076         39
  38.9933         29
  39.1791         32
  39.3649         30
  39.5506         29
  39.7364         32
  39.9221         32
  40.1079         26
  40.2936         18
  40.4794         30
  40.6652         31
  40.8509         24
  41.0367         26
  41.2224         30
  41.4082         35
  41.5939         34
  41.7797         31
  41.9654         30
  42.1512         25
  42.3370         23
  42.5227         31
  42.7085         36
  42.8942         26
  43.0800         31
  43.2657         31
  43.4515         34
  43.6372         35
  43.8230         28
  44.0088         37
  44.1945         19
  44.3803         29
  44.5660         24
  44.7518         25
  44.9375         23
  45.1233         17
  45.3091         29
  45.4948         26
  45.6806         26
  45.8663         23
  46.0521         20
  46.2378         25
  46.4236         23
  46.6093         25
  46.7951         25
  46.9809         24
  47.1666         30
  47.3524         17
  47.5381         27
  47.7239         15
  47.9096         18
  48.0954         25
  48.2811         31
  48.4669         21
  48.6527         34
  48.8384         21
  49.0242         27
  49.2099         18
  49.3957         19
  49.5814         20
  49.7672         35
  49.9530         25
  50.1387         22
  50.3245         23
  50.5102         23
  50.6960         19
  50.8817         25
  51.0675         25
  51.2532         24
  51.4390         29
  51.6248         22
  51.8105         29
  51.9963         23
  52.1820         29
  52.3678         21
  52.5535         30
  52.7393         20
  52.9250         28
  53.1108         20
  53.2966         29
  53.4823         29
  53.6681         26
  53.8538         27
  54.0396         28
  54.2253         25
  54.4111         20
  54.5969         17
  54.7826         18
  54.9684         24
  55.1541         26
  55.3399         27
  55.5256         21
  55.7114         23
  55.8971         21
  56.0829         19
  56.2687         33
  56.4544         23
  56.6402         15
  56.8259         20
  57.0117         25
  57.1974         22
  57.3832         19
  57.5689         27
  57.7547         20
  57.9405         21
  58.1262         24
  58.3120         26
  58.4977         21
  58.6835         21
  58.8692         13
  59.0550         22
  59.2408         21
  59.4265         14
  59.6123         21
  59.7980         24
  59.9838         25
  60.0024         19

File: ML_20220720_16_SJD_4_LaB6-1min.uxd
; (content of file Y:\Sam\Apurva-07-20-2022\puck2\ML_20220720_16_SJD_0_LaB6-1min.raw)
_FILEVERSION = 3
_SAMPLE = ML_20220720_16_SJD_0_LaB6-1mi
_+SAMPLE =
_SITE = USA
_USER = Administrator
_GONIOMETER_CODE = 20
; Goniometer : D8 theta/2theta, stage : Unknown
_ATTACHMENTS_CODE = 0
_GONIOMETER_RADIUS = 200.5
_FIXED_DIVSLIT = 0.6
_FIXED_SAMPLESLIT = 0
_SOLLER_SLITS = 2
_FIXED_DETSLIT = 9.55
_MONOCHROMATOR = 0
; Incident beam monochromator : None
_SOLLER_SLITS_2 = N
_THIN_FILM = N
_BETA_FILTER = Y
_FIXED_ANTISLIT = 5.89
_ANALYZER_CODE = 0
; Received beam analyzer : None
_DATEMEASURED = "25-Jul-2022 18:16:10"
_WL_UNIT = A
_WL1 = 1.5406
_WL2 = 1.54439
_WL3 = 1.39222
_WLRATIO = 0.5
_ANODE = Cu
_V4_INF_CREATOR = XRDWizard
_V4_INF_CREATOR_VERSION = V2.9.0.22
_V4_INF_WIZARD_VERSION = V2.9.0.22
_V4_INF_WIZARD_ADDINS = V2.9.0.22
_V4_INF_WIZARD_DOCTYPE = XRD
_V4_INF_OSUSER = McQueenLab
_V4_INF_USER = Administrator
_V4_INF_SITE = USA
_V4_INF_SAMPLEID = ML_20220720_16_SJD_0_LaB6-1mi

; Data for range 1
_DRIVE = COUPLED
_STEPTIME = 4.23
_STEPSIZE = 0.0185756
_STEPMODE = C
_START = 5
_THETA = 2.5
_2THETA = 5
_KHI = 0
_PHI = 0
_X = 0
_Y = 0
_Z = 0
_DETECTOR = 5
; Detector type : Unknown
_DETECTORSLIT = unkn
_AUX1 = 0
_AUX2 = 0
_AUX3 = 0
_TIMESTARTED = 15
_TEMP_RATE = -1
_TEMP_DELAY = -1
_KV = 40
_MA = 40
_RANGE_WL = 1.5406
_3DPLANE = 0
_V4_ADDITIONALDETECTOR = 257
_V4_PSD2THETA = 3.3706
_V4_PSDCHANNEL1 = 0
_V4_PSDAPERTURE = 12.68
_V4_PSDTYPE = 5
_V4_PSDFIXED = 0
_V4_COUNTERS_MASK = 4096
_V4_DRIVES_MASK = 0
_V4_ENCODERS_MASK = 0
_2THETACOUNTS = 1
; 2THETA  PSD
   5.0000         90
   5.1858        106
   5.3715         84
   5.5573         85
   5.7430         82
   5.9288         73
   6.1145         61
   6.3003         59
   6.4860         67
   6.6718         48
   6.8576         62
   7.0433         49
   7.2291         61
   7.4148         63
   7.6006         62
   7.7863         72
   7.9721         64
   8.1579         77
   8.3436         69
   8.5294         76
   8.7151         83
   8.9009         67
   9.0866         96
   9.2724         93
   9.4581         64
   9.6439         81
   9.8297        105
  10.0154         92
  10.2012        106
  10.3869         83
  10.5727        113
  10.7584        105
  10.9442         73
  11.1299         88
  11.3157         78
  11.5015         71
  11.6872         71
  11.8730         86
  12.0587         75
  12.2445         77
  12.4302         74
  12.6160         80
  12.8018         77
  12.9875         60
  13.1733         57
  13.3590         79
  13.5448         79
  13.7305         63
  13.9163         66
  14.1020         72
  14.2878         69
  14.4736         60
  14.6593         74
  14.8451         67
  15.0308         55
  15.2166         49
  15.4023         56
  15.5881         51
  15.7738         56
  15.9596         50
  16.1454         56
  16.3311         62
  16.5169         53
  16.7026         57
  16.8884         51
  17.0741         57
  17.2599         69
  17.4457         65
  17.6314         53
  17.8172         54
  18.0029         63
  18.1887         64
  18.3744         49
  18.5602         72
  18.7459         46
  18.9317         47
  19.1175         65
  19.3032         56
  19.4890         55
  19.6747         68
  19.8605         61
  20.0462         64
  20.2320         58
  20.4177         68
  20.6035         67
  20.7893         65
  20.9750         77
  21.1608         81
  21.3465        196
  21.5323         74
  21.7180         75
  21.9038         52
  22.0896         68
  22.2753         87
  22.4611         70
  22.6468         68
  22.8326         83
  23.0183         76
  23.2041         68
  23.3898         93
  23.5756         89
  23.7614         75
  23.9471         65
  24.1329         73
  24.3186         80
  24.5044         82
  24.6901         67
  24.8759         56
  25.0616         77
  25.2474         76
  25.4332         78
  25.6189         79
  25.8047         80
  25.9904         86
  26.1762         78
  26.3619         81
  26.5477         71
  26.7335         84
  26.9192         67
  27.1050         56
  27.2907         72
  27.4765         73
  27.6622         64
  27.8480         77
  28.0337         75
  28.2195         51
  28.4053         60
  28.5910         64
  28.7768         49
  28.9625         61
  29.1483         51
  29.3340         44
  29.5198         55
  29.7055         53
  29.8913         45
  30.0771         63
  30.2628         64
  30.4486         89
  30.6343         61
  30.8201         50
  31.0058         56
  31.1916         51
  31.3774         50
  31.5631         57
  31.7489         42
  31.9346         46
  32.1204         43
  32.3061         46
  32.4919         47
  32.6776         57
  32.8634         41
  33.0492         50
  33.2349         50
  33.4207         34
  33.6064         37
  33.7922         55
  33.9779         31
  34.1637         33
  34.3494         47
  34.5352         46
  34.7210         53
  34.9067         39
  35.0925         42
  35.2782         38
  35.4640         42
  35.6497         42
  35.8355         44
  36.0213         42
  36.2070         37
  36.3928         45
  36.5785         35
  36.7643         31
  36.9500         28
  37.1358         40
  37.3215         31
  37.5073         42
  37.6931         34
  37.8788         33
  38.0646         39
  38.2503         30
  38.4361         32
  38.6218         45
  38.8076         31
  38.9933         29
  39.1791         35
  39.3649         32
  39.5506         29
  39.7364         22
  39.9221         32
  40.1079         35
  40.2936         35
  40.4794         34
  40.6652         24
  40.8509         36
  41.0367         39
  41.2224         32
  41.4082         26
  41.5939         26
  41.7797         25
  41.9654         22
  42.1512         20
  42.3370         30
  42.5227         29
  42.7085         30
  42.8942         35
  43.0800         31
  43.2657         35
  43.4515         26
  43.6372         41
  43.8230         33
  44.0088         23
  44.1945         28
  44.3803         34
  44.5660         20
  44.7518         34
  44.9375         27
  45.1233         24
  45.3091         26
  45.4948         21
  45.6806         25
  45.8663         25
  46.0521         20
  46.2378         22
  46.4236         29
  46.6093         34
  46.7951         17
  46.9809         21
  47.1666         18
  47.3524         36
  47.5381         21
  47.7239         19
  47.9096         38
  48.0954         25
  48.2811         15
  48.4669         28
  48.6527         25
  48.8384         30
  49.0242         28
  49.2099         22
  49.3957         21
  49.5814         21
  49.7672         26
  49.9530         19
  50.1387         26
  50.3245         17
  50.5102         20
  50.6960         25
  50.8817         26
  51.0675         23
  51.2532         18
  51.4390         35
  51.6248         29
  51.8105         19
  51.9963         20
  52.1820         15
  52.3678         23
  52.5535         12
  52.7393         30
  52.9250         29
  53.1108         31
  53.2966         29
  53.4823         18
  53.6681         16
  53.8538         20
  54.0396         28
  54.2253         29
  54.4111         20
  54.5969         24
  54.7826         22
  54.9684         24
  55.1541         23
  55.3399         25
  55.5256         14
  55.7114         18
  55.8971         22
  56.0829         27
  56.2687         28
  56.4544         15
  56.6402         20
  56.8259         20
  57.0117         18
  57.1974         13
  57.3832         21
  57.5689         21
  57.7547         23
  57.9405         21
  58.1262         13
  58.3120         18
  58.4977         13
  58.6835         16
  58.8692         22
  59.0550         20
  59.2408         20
  59.4265         17
  59.6123         24
  59.7980         19
  59.9838         19
  60.0024         20