Folder: xrd_clustering/notebooks/data/xrd_data (part 11)

File: ML_20220718_41_SJD_4_LaB6-2min.uxd
; (content of file Y:\Sam\Apurva-07-20-2022\puck4\ML_20220718_41_SJD_4_LaB6-2min.raw)
_FILEVERSION = 3
_SAMPLE = ML_20220718_41_SJD_4_LaB6-2min
_+SAMPLE =
_SITE = USA
_USER = Administrator
_GONIOMETER_CODE = 20
; Goniometer : D8 theta/2theta, stage : Unknown
_ATTACHMENTS_CODE = 0
_GONIOMETER_RADIUS = 200.5
_FIXED_DIVSLIT = 0.6
_FIXED_SAMPLESLIT = 0
_SOLLER_SLITS = 2
_FIXED_DETSLIT = 9.55
_MONOCHROMATOR = 0
; Incident beam monochromator : None
_SOLLER_SLITS_2 = N
_THIN_FILM = N
_BETA_FILTER = Y
_FIXED_ANTISLIT = 5.89
_ANALYZER_CODE = 0
; Received beam analyzer : None
_DATEMEASURED = "26-Jul-2022 12:06:07"
_WL_UNIT = A
_WL1 = 1.5406
_WL2 = 1.54439
_WL3 = 1.39222
_WLRATIO = 0.5
_ANODE = Cu
_V4_INF_CREATOR = XRDWizard
_V4_INF_CREATOR_VERSION = V2.9.0.22
_V4_INF_WIZARD_VERSION = V2.9.0.22
_V4_INF_WIZARD_ADDINS = V2.9.0.22
_V4_INF_WIZARD_DOCTYPE = XRD
_V4_INF_OSUSER = McQueenLab
_V4_INF_USER = Administrator
_V4_INF_SITE = USA
_V4_INF_SAMPLEID = ML_20220718_41_SJD_4_LaB6-2min

; Data for range 1
_DRIVE = COUPLED
_STEPTIME = 5.64
_STEPSIZE = 0.0185756
_STEPMODE = C
_START = 5
_THETA = 2.5
_2THETA = 5
_KHI = 0
_PHI = 0
_X = 0
_Y = 0
_Z = 0
_DETECTOR = 5
; Detector type : Unknown
_DETECTORSLIT = unkn
_AUX1 = 0
_AUX2 = 0
_AUX3 = 0
_TIMESTARTED = 15
_TEMP_RATE = -1
_TEMP_DELAY = -1
_KV = 40
_MA = 40
_RANGE_WL = 1.5406
_3DPLANE = 0
_V4_ADDITIONALDETECTOR = 257
_V4_PSD2THETA = 3.3706
_V4_PSDCHANNEL1 = 0
_V4_PSDAPERTURE = 12.68
_V4_PSDTYPE = 5
_V4_PSDFIXED = 0
_V4_COUNTERS_MASK = 4096
_V4_DRIVES_MASK = 0
_V4_ENCODERS_MASK = 0
_2THETACOUNTS = 1
; 2THETA  PSD
   5.0000        126
   5.1858        117
   5.3715        120
   5.5573        115
   5.7430        102
   5.9288        123
   6.1145         98
   6.3003         99
   6.4860         77
   6.6718         92
   6.8576         75
   7.0433         97
   7.2291         82
   7.4148         77
   7.6006         82
   7.7863         73
   7.9721        104
   8.1579         96
   8.3436        108
   8.5294         92
   8.7151        103
   8.9009         97
   9.0866        114
   9.2724        119
   9.4581        121
   9.6439        112
   9.8297        140
  10.0154        123
  10.2012        121
  10.3869        131
  10.5727        130
  10.7584        131
  10.9442         79
  11.1299        124
  11.3157        143
  11.5015        112
  11.6872        121
  11.8730        110
  12.0587        101
  12.2445        107
  12.4302        103
  12.6160        102
  12.8018         91
  12.9875        106
  13.1733        103
  13.3590         96
  13.5448         87
  13.7305         98
  13.9163         92
  14.1020         96
  14.2878         85
  14.4736         97
  14.6593         90
  14.8451         87
  15.0308         91
  15.2166         83
  15.4023         79
  15.5881         78
  15.7738         74
  15.9596         91
  16.1454         85
  16.3311         83
  16.5169         73
  16.7026         78
  16.8884         94
  17.0741         94
  17.2599         78
  17.4457         81
  17.6314         90
  17.8172         78
  18.0029         81
  18.1887         78
  18.3744         97
  18.5602         95
  18.7459         67
  18.9317        100
  19.1175         82
  19.3032         90
  19.4890         84
  19.6747         82
  19.8605         98
  20.0462         96
  20.2320         96
  20.4177         92
  20.6035        111
  20.7893         80
  20.9750         99
  21.1608        118
  21.3465        250
  21.5323         91
  21.7180        101
  21.9038        110
  22.0896        110
  22.2753        123
  22.4611        102
  22.6468        101
  22.8326         92
  23.0183        114
  23.2041        103
  23.3898         99
  23.5756        101
  23.7614        101
  23.9471        108
  24.1329        100
  24.3186        102
  24.5044        104
  24.6901         94
  24.8759         84
  25.0616        102
  25.2474         95
  25.4332        100
  25.6189         92
  25.8047        116
  25.9904         90
  26.1762         91
  26.3619        108
  26.5477         95
  26.7335        116
  26.9192         84
  27.1050         91
  27.2907        108
  27.4765        100
  27.6622         75
  27.8480         90
  28.0337         98
  28.2195        104
  28.4053         81
  28.5910         76
  28.7768         78
  28.9625         76
  29.1483         72
  29.3340         76
  29.5198         78
  29.7055         83
  29.8913         68
  30.0771         75
  30.2628         73
  30.4486        119
  30.6343         77
  30.8201         70
  31.0058         56
  31.1916         57
  31.3774         59
  31.5631         66
  31.7489         57
  31.9346         63
  32.1204         69
  32.3061         72
  32.4919         87
  32.6776         69
  32.8634         61
  33.0492         53
  33.2349         72
  33.4207         53
  33.6064         53
  33.7922         57
  33.9779         53
  34.1637         47
  34.3494         58
  34.5352         70
  34.7210         72
  34.9067         51
  35.0925         51
  35.2782         42
  35.4640         55
  35.6497         47
  35.8355         50
  36.0213         55
  36.2070         39
  36.3928         51
  36.5785         52
  36.7643         44
  36.9500         45
  37.1358         43
  37.3215         33
  37.5073         60
  37.6931         50
  37.8788         46
  38.0646         31
  38.2503         47
  38.4361         34
  38.6218         43
  38.8076         37
  38.9933         45
  39.1791         46
  39.3649         30
  39.5506         26
  39.7364         44
  39.9221         40
  40.1079         41
  40.2936         34
  40.4794         41
  40.6652         37
  40.8509         41
  41.0367         57
  41.2224         45
  41.4082         39
  41.5939         29
  41.7797         39
  41.9654         40
  42.1512         36
  42.3370         44
  42.5227         42
  42.7085         42
  42.8942         45
  43.0800         32
  43.2657         46
  43.4515         33
  43.6372         44
  43.8230         41
  44.0088         32
  44.1945         38
  44.3803         40
  44.5660         35
  44.7518         35
  44.9375         56
  45.1233         41
  45.3091         32
  45.4948         31
  45.6806         37
  45.8663         37
  46.0521         25
  46.2378         29
  46.4236         28
  46.6093         34
  46.7951         38
  46.9809         26
  47.1666         26
  47.3524         36
  47.5381         27
  47.7239         24
  47.9096         30
  48.0954         33
  48.2811         22
  48.4669         39
  48.6527         19
  48.8384         38
  49.0242         32
  49.2099         34
  49.3957         31
  49.5814         35
  49.7672         26
  49.9530         34
  50.1387         34
  50.3245         35
  50.5102         28
  50.6960         26
  50.8817         20
  51.0675         24
  51.2532         33
  51.4390         30
  51.6248         38
  51.8105         34
  51.9963         29
  52.1820         35
  52.3678         27
  52.5535         34
  52.7393         24
  52.9250         24
  53.1108         36
  53.2966         38
  53.4823         20
  53.6681         35
  53.8538         25
  54.0396         40
  54.2253         27
  54.4111         30
  54.5969         34
  54.7826         25
  54.9684         29
  55.1541         30
  55.3399         23
  55.5256         25
  55.7114         26
  55.8971         33
  56.0829         29
  56.2687         22
  56.4544         33
  56.6402         38
  56.8259         35
  57.0117         23
  57.1974         28
  57.3832         29
  57.5689         33
  57.7547         26
  57.9405         24
  58.1262         20
  58.3120         25
  58.4977         26
  58.6835         19
  58.8692         32
  59.0550         25
  59.2408         24
  59.4265         25
  59.6123         27
  59.7980         21
  59.9838         26
  60.0024         29

File: ML_20220718_41_SJD_4_LaB6-4min.csv
;,2THETA,
5.0000,288
5.1858,260
5.3715,266
5.5573,216
5.7430,197
5.9288,197
6.1145,181
6.3003,196
6.4860,174
6.6718,192
6.8576,163
7.0433,167
7.2291,182
7.4148,197
7.6006,187
7.7863,170
7.9721,178
8.1579,204
8.3436,194
8.5294,189
8.7151,190
8.9009,206
9.0866,229
9.2724,239
9.4581,222
9.6439,240
9.8297,245
10.0154,242
10.2012,231
10.3869,246
10.5727,276
10.7584,245
10.9442,226
11.1299,232
11.3157,215
11.5015,256
11.6872,252
11.8730,231
12.0587,237
12.2445,214
12.4302,225
12.6160,229
12.8018,215
12.9875,208
13.1733,181
13.3590,178
13.5448,169
13.7305,210
13.9163,192
14.1020,167
14.2878,184
14.4736,180
14.6593,173
14.8451,185
15.0308,164
15.2166,172
15.4023,167
15.5881,168
15.7738,158
15.9596,149
16.1454,165
16.3311,170
16.5169,154
16.7026,166
16.8884,166
17.0741,152
17.2599,167
17.4457,164
17.6314,179
17.8172,147
18.0029,161
18.1887,166
18.3744,191
18.5602,191
18.7459,171
18.9317,172
19.1175,168
19.3032,178
19.4890,176
19.6747,172
19.8605,171
20.0462,175
20.2320,177
20.4177,175
20.6035,172
20.7893,186
20.9750,159
21.1608,244
21.3465,501
21.5323,224
21.7180,194
21.9038,182
22.0896,212
22.2753,209
22.4611,191
22.6468,203
22.8326,196
23.0183,203
23.2041,193
23.3898,192
23.5756,191
23.7614,197
23.9471,204
24.1329,171
24.3186,234
24.5044,204
24.6901,217
24.8759,198
25.0616,179
25.2474,187
25.4332,184
25.6189,185
25.8047,196
25.9904,210
26.1762,181
26.3619,201
26.5477,184
26.7335,201
26.9192,181
27.1050,217
27.2907,235
27.4765,202
27.6622,194
27.8480,175
28.0337,193
28.2195,165
28.4053,171
28.5910,156
28.7768,162
28.9625,148
29.1483,147
29.3340,154
29.5198,171
29.7055,143
29.8913,180
30.0771,165
30.2628,181
30.4486,238
30.6343,157
30.8201,165
31.0058,126
31.1916,150
31.3774,158
31.5631,135
31.7489,134
31.9346,146
32.1204,148
32.3061,138
32.4919,135
32.6776,123
32.8634,140
33.0492,118
33.2349,122
33.4207,136
33.6064,112
33.7922,99
33.9779,104
34.1637,107
34.3494,108
34.5352,115
34.7210,149
34.9067,126
35.0925,129
35.2782,116
35.4640,112
35.6497,81
35.8355,102
36.0213,109
36.2070,89
36.3928,90
36.5785,98
36.7643,94
36.9500,87
37.1358,110
37.3215,104
37.5073,113
37.6931,101
37.8788,62
38.0646,87
38.2503,90
38.4361,102
38.6218,80
38.8076,107
38.9933,85
39.1791,72
39.3649,80
39.5506,77
39.7364,66
39.9221,73
40.1079,75
40.2936,81
40.4794,86
40.6652,82
40.8509,75
41.0367,79
41.2224,78
41.4082,71
41.5939,88
41.7797,89
41.9654,64
42.1512,68
42.3370,89
42.5227,73
42.7085,71
42.8942,66
43.0800,81
43.2657,83
43.4515,81
43.6372,103
43.8230,69
44.0088,70
44.1945,65
44.3803,72
44.5660,67
44.7518,69
44.9375,67
45.1233,58
45.3091,64
45.4948,77
45.6806,66
45.8663,56
46.0521,73
46.2378,67
46.4236,66
46.6093,52
46.7951,70
46.9809,62
47.1666,55
47.3524,66
47.5381,62
47.7239,81
47.9096,78
48.0954,77
48.2811,55
48.4669,65
48.6527,70
48.8384,58
49.0242,94
49.2099,61
49.3957,81
49.5814,54
49.7672,55
49.9530,64
50.1387,60
50.3245,55
50.5102,52
50.6960,61
50.8817,60
51.0675,59
51.2532,70
51.4390,72
51.6248,65
51.8105,56
51.9963,61
52.1820,55
52.3678,54
52.5535,63
52.7393,72
52.9250,65
53.1108,51
53.2966,58
53.4823,60
53.6681,52
53.8538,55
54.0396,68
54.2253,49
54.4111,65
54.5969,50
54.7826,69
54.9684,47
55.1541,59
55.3399,65
55.5256,60
55.7114,56
55.8971,49
56.0829,56
56.2687,62
56.4544,60
56.6402,63
56.8259,59
57.0117,48
57.1974,53
57.3832,47
57.5689,47
57.7547,46
57.9405,69
58.1262,54
58.3120,59
58.4977,53
58.6835,48
58.8692,60
59.0550,52
59.2408,40
59.4265,49
59.6123,61
59.7980,58
59.9838,67
60.0024,52

File: ML_20220718_42_SJD_4_LaB6-1min.csv
;,2THETA,
5.0000,109
5.1858,102
5.3715,88
5.5573,98
5.7430,81
5.9288,67
6.1145,61
6.3003,63
6.4860,63
6.6718,68
6.8576,60
7.0433,56
7.2291,63
7.4148,57
7.6006,58
7.7863,58
7.9721,63
8.1579,77
8.3436,85
8.5294,80
8.7151,71
8.9009,80
9.0866,81
9.2724,74
9.4581,74
9.6439,91
9.8297,85
10.0154,87
10.2012,92
10.3869,96
10.5727,74
10.7584,86
10.9442,79
11.1299,81
11.3157,85
11.5015,94
11.6872,83
11.8730,96
12.0587,82
12.2445,75
12.4302,68
12.6160,72
12.8018,84
12.9875,73
13.1733,72
13.3590,78
13.5448,78
13.7305,60
13.9163,57
14.1020,53
14.2878,68
14.4736,68
14.6593,72
14.8451,59
15.0308,56
15.2166,65
15.4023,64
15.5881,63
15.7738,69
15.9596,48
16.1454,47
16.3311,65
16.5169,77
16.7026,52
16.8884,61
17.0741,67
17.2599,65
17.4457,73
17.6314,55
17.8172,60
18.0029,45
18.1887,56
18.3744,66
18.5602,67
18.7459,52
18.9317,59
19.1175,55
19.3032,60
19.4890,68
19.6747,68
19.8605,50
20.0462,53
20.2320,72
20.4177,77
20.6035,61
20.7893,66
20.9750,58
21.1608,83
21.3465,180
21.5323,88
21.7180,64
21.9038,80
22.0896,60
22.2753,69
22.4611,75
22.6468,74
22.8326,79
23.0183,82
23.2041,78
23.3898,63
23.5756,74
23.7614,84
23.9471,65
24.1329,75
24.3186,77
24.5044,78
24.6901,70
24.8759,66
25.0616,77
25.2474,90
25.4332,69
25.6189,62
25.8047,75
25.9904,88
26.1762,68
26.3619,81
26.5477,57
26.7335,61
26.9192,57
27.1050,81
27.2907,66
27.4765,60
27.6622,75
27.8480,69
28.0337,69
28.2195,71
28.4053,53
28.5910,52
28.7768,63
28.9625,61
29.1483,75
29.3340,67
29.5198,44
29.7055,54
29.8913,52
30.0771,67
30.2628,57
30.4486,87
30.6343,64
30.8201,51
31.0058,40
31.1916,58
31.3774,55
31.5631,40
31.7489,34
31.9346,57
32.1204,59
32.3061,51
32.4919,55
32.6776,55
32.8634,40
33.0492,44
33.2349,54
33.4207,37
33.6064,46
33.7922,56
33.9779,51
34.1637,46
34.3494,43
34.5352,44
34.7210,50
34.9067,47
35.0925,34
35.2782,35
35.4640,39
35.6497,31
35.8355,41
36.0213,47
36.2070,32
36.3928,37
36.5785,37
36.7643,34
36.9500,30
37.1358,35
37.3215,48
37.5073,49
37.6931,28
37.8788,27
38.0646,24
38.2503,31
38.4361,30
38.6218,28
38.8076,24
38.9933,35
39.1791,22
39.3649,30
39.5506,29
39.7364,31
39.9221,30
40.1079,31
40.2936,24
40.4794,34
40.6652,25
40.8509,22
41.0367,42
41.2224,20
41.4082,24
41.5939,30
41.7797,42
41.9654,33
42.1512,26
42.3370,34
42.5227,25
42.7085,30
42.8942,34
43.0800,25
43.2657,38
43.4515,41
43.6372,44
43.8230,23
44.0088,23
44.1945,28
44.3803,31
44.5660,25
44.7518,34
44.9375,26
45.1233,20
45.3091,16
45.4948,37
45.6806,22
45.8663,28
46.0521,22
46.2378,18
46.4236,29
46.6093,18
46.7951,20
46.9809,26
47.1666,24
47.3524,35
47.5381,21
47.7239,25
47.9096,25
48.0954,18
48.2811,23
48.4669,25
48.6527,18
48.8384,20
49.0242,20
49.2099,31
49.3957,23
49.5814,31
49.7672,24
49.9530,20
50.1387,34
50.3245,18
50.5102,20
50.6960,33
50.8817,19
51.0675,19
51.2532,15
51.4390,31
51.6248,20
51.8105,24
51.9963,19
52.1820,19
52.3678,17
52.5535,23
52.7393,23
52.9250,18
53.1108,17
53.2966,15
53.4823,25
53.6681,15
53.8538,29
54.0396,17
54.2253,16
54.4111,21
54.5969,22
54.7826,25
54.9684,22
55.1541,28
55.3399,27
55.5256,14
55.7114,20
55.8971,18
56.0829,23
56.2687,19
56.4544,20
56.6402,13
56.8259,23
57.0117,12
57.1974,23
57.3832,15
57.5689,16
57.7547,13
57.9405,16
58.1262,20
58.3120,22
58.4977,23
58.6835,23
58.8692,20
59.0550,17
59.2408,22
59.4265,18
59.6123,12
59.7980,28
59.9838,21
60.0024,19

File: ML_20220718_42_SJD_4_LaB6-2min.csv
;,2THETA,
5.0000,120
5.1858,127
5.3715,123
5.5573,105
5.7430,81
5.9288,83
6.1145,94
6.3003,94
6.4860,81
6.6718,93
6.8576,84
7.0433,75
7.2291,71
7.4148,87
7.6006,100
7.7863,63
7.9721,93
8.1579,94
8.3436,87
8.5294,100
8.7151,93
8.9009,104
9.0866,114
9.2724,118
9.4581,103
9.6439,102
9.8297,130
10.0154,94
10.2012,120
10.3869,108
10.5727,121
10.7584,126
10.9442,120
11.1299,125
11.3157,105
11.5015,120
11.6872,123
11.8730,110
12.0587,108
12.2445,96
12.4302,119
12.6160,96
12.8018,119
12.9875,96
13.1733,100
13.3590,76
13.5448,125
13.7305,91
13.9163,84
14.1020,88
14.2878,86
14.4736,90
14.6593,71
14.8451,93
15.0308,80
15.2166,96
15.4023,74
15.5881,68
15.7738,83
15.9596,70
16.1454,83
16.3311,83
16.5169,80
16.7026,78
16.8884,65
17.0741,99
17.2599,77
17.4457,93
17.6314,74
17.8172,71
18.0029,86
18.1887,75
18.3744,93
18.5602,77
18.7459,72
18.9317,91
19.1175,74
19.3032,75
19.4890,105
19.6747,72
19.8605,82
20.0462,90
20.2320,94
20.4177,88
20.6035,95
20.7893,95
20.9750,84
21.1608,119
21.3465,219
21.5323,93
21.7180,88
21.9038,92
22.0896,90
22.2753,92
22.4611,80
22.6468,109
22.8326,77
23.0183,110
23.2041,87
23.3898,95
23.5756,97
23.7614,135
23.9471,105
24.1329,92
24.3186,107
24.5044,91
24.6901,110
24.8759,82
25.0616,102
25.2474,102
25.4332,110
25.6189,91
25.8047,86
25.9904,113
26.1762,103
26.3619,105
26.5477,97
26.7335,90
26.9192,95
27.1050,86
27.2907,99
27.4765,86
27.6622,86
27.8480,88
28.0337,76
28.2195,95
28.4053,86
28.5910,80
28.7768,73
28.9625,82
29.1483,80
29.3340,86
29.5198,80
29.7055,93
29.8913,76
30.0771,80
30.2628,86
30.4486,126
30.6343,73
30.8201,61
31.0058,84
31.1916,75
31.3774,54
31.5631,78
31.7489,48
31.9346,72
32.1204,59
32.3061,69
32.4919,70
32.6776,45
32.8634,43
33.0492,58
33.2349,54
33.4207,46
33.6064,68
33.7922,79
33.9779,49
34.1637,46
34.3494,62
34.5352,67
34.7210,57
34.9067,53
35.0925,56
35.2782,55
35.4640,45
35.6497,53
35.8355,43
36.0213,47
36.2070,52
36.3928,56
36.5785,49
36.7643,49
36.9500,76
37.1358,48
37.3215,52
37.5073,53
37.6931,47
37.8788,44
38.0646,52
38.2503,39
38.4361,37
38.6218,42
38.8076,56
38.9933,51
39.1791,38
39.3649,42
39.5506,34
39.7364,35
39.9221,42
40.1079,29
40.2936,42
40.4794,29
40.6652,43
40.8509,36
41.0367,44
41.2224,36
41.4082,46
41.5939,45
41.7797,26
41.9654,43
42.1512,30
42.3370,40
42.5227,34
42.7085,43
42.8942,30
43.0800,42
43.2657,41
43.4515,52
43.6372,40
43.8230,42
44.0088,36
44.1945,34
44.3803,39
44.5660,32
44.7518,41
44.9375,30
45.1233,46
45.3091,32
45.4948,33
45.6806,28
45.8663,35
46.0521,30
46.2378,38
46.4236,30
46.6093,40
46.7951,37
46.9809,31
47.1666,24
47.3524,28
47.5381,36
47.7239,30
47.9096,27
48.0954,24
48.2811,23
48.4669,39
48.6527,34
48.8384,27
49.0242,36
49.2099,24
49.3957,40
49.5814,30
49.7672,15
49.9530,25
50.1387,33
50.3245,22
50.5102,29
50.6960,29
50.8817,37
51.0675,32
51.2532,41
51.4390,29
51.6248,32
51.8105,37
51.9963,25
52.1820,31
52.3678,37
52.5535,30
52.7393,29
52.9250,24
53.1108,26
53.2966,32
53.4823,20
53.6681,23
53.8538,41
54.0396,34
54.2253,29
54.4111,29
54.5969,30
54.7826,22
54.9684,26
55.1541,23
55.3399,28
55.5256,31
55.7114,24
55.8971,28
56.0829,29
56.2687,37
56.4544,28
56.6402,38
56.8259,21
57.0117,32
57.1974,26
57.3832,28
57.5689,28
57.7547,23
57.9405,36
58.1262,26
58.3120,31
58.4977,33
58.6835,32
58.8692,29
59.0550,34
59.2408,17
59.4265,28
59.6123,24
59.7980,22
59.9838,30
60.0024,28

File: ML_20220718_42_SJD_4_LaB6-4min.csv
;,2THETA,
5.0000,275
5.1858,244
5.3715,250
5.5573,244
5.7430,193
5.9288,204
6.1145,198
6.3003,181
6.4860,165
6.6718,159
6.8576,202
7.0433,146
7.2291,160
7.4148,169
7.6006,171
7.7863,203
7.9721,195
8.1579,219
8.3436,213
8.5294,220
8.7151,190
8.9009,202
9.0866,206
9.2724,225
9.4581,212
9.6439,222
9.8297,256
10.0154,234
10.2012,259
10.3869,243
10.5727,254
10.7584,243
10.9442,228
11.1299,232
11.3157,228
11.5015,216
11.6872,242
11.8730,225
12.0587,233
12.2445,230
12.4302,205
12.6160,196
12.8018,204
12.9875,206
13.1733,201
13.3590,194
13.5448,203
13.7305,211
13.9163,182
14.1020,183
14.2878,165
14.4736,164
14.6593,175
14.8451,151
15.0308,192
15.2166,160
15.4023,160
15.5881,149
15.7738,158
15.9596,156
16.1454,144
16.3311,169
16.5169,155
16.7026,151
16.8884,175
17.0741,177
17.2599,168
17.4457,145
17.6314,189
17.8172,171
18.0029,149
18.1887,155
18.3744,147
18.5602,162
18.7459,176
18.9317,172
19.1175,192
19.3032,160
19.4890,165
19.6747,170
19.8605,193
20.0462,171
20.2320,183
20.4177,200
20.6035,171
20.7893,169
20.9750,174
21.1608,221
21.3465,491
21.5323,186
21.7180,217
21.9038,203
22.0896,228
22.2753,197
22.4611,209
22.6468,180
22.8326,225
23.0183,218
23.2041,181
23.3898,211
23.5756,201
23.7614,202
23.9471,192
24.1329,214
24.3186,225
24.5044,208
24.6901,212
24.8759,189
25.0616,201
25.2474,207
25.4332,204
25.6189,183
25.8047,195
25.9904,180
26.1762,188
26.3619,193
26.5477,189
26.7335,206
26.9192,211
27.1050,192
27.2907,183
27.4765,183
27.6622,179
27.8480,179
28.0337,162
28.2195,161
28.4053,139
28.5910,139
28.7768,163
28.9625,160
29.1483,147
29.3340,142
29.5198,150
29.7055,139
29.8913,146
30.0771,144
30.2628,159
30.4486,247
30.6343,156
30.8201,140
31.0058,141
31.1916,153
31.3774,130
31.5631,136
31.7489,148
31.9346,145
32.1204,119
32.3061,122
32.4919,126
32.6776,124
32.8634,112
33.0492,106
33.2349,127
33.4207,119
33.6064,118
33.7922,125
33.9779,104
34.1637,111
34.3494,114
34.5352,135
34.7210,139
34.9067,109
35.0925,104
35.2782,87
35.4640,119
35.6497,118
35.8355,110
36.0213,96
36.2070,94
36.3928,124
36.5785,96
36.7643,83
36.9500,68
37.1358,98
37.3215,99
37.5073,121
37.6931,85
37.8788,82
38.0646,88
38.2503,74
38.4361,72
38.6218,99
38.8076,86
38.9933,93
39.1791,71
39.3649,77
39.5506,76
39.7364,82
39.9221,69
40.1079,71
40.2936,66
40.4794,81
40.6652,69
40.8509,77
41.0367,81
41.2224,65
41.4082,73
41.5939,75
41.7797,76
41.9654,83
42.1512,70
42.3370,87
42.5227,58
42.7085,74
42.8942,81
43.0800,79
43.2657,89
43.4515,95
43.6372,97
43.8230,77
44.0088,68
44.1945,68
44.3803,75
44.5660,67
44.7518,84
44.9375,65
45.1233,78
45.3091,70
45.4948,55
45.6806,74
45.8663,70
46.0521,81
46.2378,68
46.4236,64
46.6093,60
46.7951,82
46.9809,66
47.1666,70
47.3524,71
47.5381,71
47.7239,62
47.9096,65
48.0954,67
48.2811,65
48.4669,59
48.6527,61
48.8384,75
49.0242,61
49.2099,61
49.3957,65
49.5814,49
49.7672,64
49.9530,58
50.1387,82
50.3245,56
50.5102,70
50.6960,58
50.8817,58
51.0675,54
51.2532,80
51.4390,69
51.6248,63
51.8105,81
51.9963,54
52.1820,58
52.3678,50
52.5535,32
52.7393,51
52.9250,62
53.1108,61
53.2966,51
53.4823,56
53.6681,58
53.8538,51
54.0396,70
54.2253,54
54.4111,74
54.5969,47
54.7826,62
54.9684,56
55.1541,60
55.3399,55
55.5256,71
55.7114,55
55.8971,36
56.0829,58
56.2687,65
56.4544,59
56.6402,55
56.8259,57
57.0117,56
57.1974,55
57.3832,49
57.5689,53
57.7547,63
57.9405,53
58.1262,53
58.3120,52
58.4977,63
58.6835,63
58.8692,56
59.0550,51
59.2408,54
59.4265,53
59.6123,58
59.7980,60
59.9838,53
60.0024,59

File: ML_20220718_43_SJD_4_LaB6-1min.csv
;,2THETA,
5.0000,105
5.1858,100
5.3715,96
5.5573,83
5.7430,99
5.9288,66
6.1145,81
6.3003,67
6.4860,58
6.6718,72
6.8576,55
7.0433,66
7.2291,62
7.4148,58
7.6006,59
7.7863,65
7.9721,83
8.1579,74
8.3436,66
8.5294,79
8.7151,70
8.9009,73
9.0866,82
9.2724,83
9.4581,72
9.6439,83
9.8297,67
10.0154,85
10.2012,79
10.3869,94
10.5727,108
10.7584,101
10.9442,85
11.1299,86
11.3157,66
11.5015,93
11.6872,83
11.8730,83
12.0587,75
12.2445,73
12.4302,73
12.6160,97
12.8018,83
12.9875,77
13.1733,63
13.3590,70
13.5448,72
13.7305,79
13.9163,71
14.1020,63
14.2878,81
14.4736,70
14.6593,67
14.8451,78
15.0308,58
15.2166,67
15.4023,49
15.5881,54
15.7738,52
15.9596,56
16.1454,59
16.3311,51
16.5169,59
16.7026,62
16.8884,64
17.0741,54
17.2599,52
17.4457,56
17.6314,70
17.8172,63
18.0029,56
18.1887,56
18.3744,70
18.5602,72
18.7459,71
18.9317,64
19.1175,53
19.3032,62
19.4890,49
19.6747,74
19.8605,66
20.0462,62
20.2320,68
20.4177,79
20.6035,62
20.7893,79
20.9750,71
21.1608,87
21.3465,187
21.5323,76
21.7180,75
21.9038,73
22.0896,61
22.2753,73
22.4611,77
22.6468,66
22.8326,68
23.0183,77
23.2041,62
23.3898,75
23.5756,78
23.7614,77
23.9471,72
24.1329,77
24.3186,76
24.5044,78
24.6901,68
24.8759,67
25.0616,75
25.2474,83
25.4332,68
25.6189,71
25.8047,75
25.9904,70
26.1762,66
26.3619,73
26.5477,62
26.7335,74
26.9192,83
27.1050,86
27.2907,92
27.4765,61
27.6622,55
27.8480,58
28.0337,71
28.2195,72
28.4053,64
28.5910,54
28.7768,66
28.9625,59
29.1483,58
29.3340,56
29.5198,75
29.7055,45
29.8913,60
30.0771,57
30.2628,76
30.4486,84
30.6343,54
30.8201,58
31.0058,53
31.1916,57
31.3774,53
31.5631,46
31.7489,49
31.9346,46
32.1204,49
32.3061,43
32.4919,42
32.6776,50
32.8634,45
33.0492,46
33.2349,49
33.4207,49
33.6064,41
33.7922,46
33.9779,38
34.1637,37
34.3494,40
34.5352,56
34.7210,53
34.9067,55
35.0925,34
35.2782,34
35.4640,40
35.6497,41
35.8355,37
36.0213,34
36.2070,30
36.3928,41
36.5785,42
36.7643,35
36.9500,25
37.1358,43
37.3215,34
37.5073,43
37.6931,28
37.8788,34
38.0646,41
38.2503,27
38.4361,34
38.6218,25
38.8076,25
38.9933,32
39.1791,30
39.3649,24
39.5506,25
39.7364,25
39.9221,30
40.1079,28
40.2936,31
40.4794,22
40.6652,34
40.8509,26
41.0367,28
41.2224,25
41.4082,33
41.5939,21
41.7797,31
41.9654,26
42.1512,30
42.3370,24
42.5227,29
42.7085,23
42.8942,37
43.0800,24
43.2657,33
43.4515,41
43.6372,36
43.8230,38
44.0088,32
44.1945,34
44.3803,26
44.5660,27
44.7518,28
44.9375,29
45.1233,30
45.3091,24
45.4948,24
45.6806,22
45.8663,12
46.0521,23
46.2378,35
46.4236,22
46.6093,33
46.7951,21
46.9809,23
47.1666,19
47.3524,19
47.5381,30
47.7239,23
47.9096,30
48.0954,19
48.2811,23
48.4669,23
48.6527,26
48.8384,24
49.0242,32
49.2099,30
49.3957,22
49.5814,22
49.7672,27
49.9530,16
50.1387,31
50.3245,22
50.5102,21
50.6960,28
50.8817,21
51.0675,21
51.2532,20
51.4390,26
51.6248,24
51.8105,25
51.9963,31
52.1820,23
52.3678,19
52.5535,16
52.7393,24
52.9250,24
53.1108,24
53.2966,20
53.4823,9
53.6681,28
53.8538,28
54.0396,33
54.2253,26
54.4111,24
54.5969,20
54.7826,14
54.9684,27
55.1541,16
55.3399,22
55.5256,19
55.7114,17
55.8971,20
56.0829,25
56.2687,13
56.4544,24
56.6402,35
56.8259,21
57.0117,17
57.1974,20
57.3832,27
57.5689,23
57.7547,18
57.9405,21
58.1262,15
58.3120,15
58.4977,21
58.6835,23
58.8692,23
59.0550,16
59.2408,32
59.4265,17
59.6123,18
59.7980,17
59.9838,16
60.0024,16