Folder: xrd_clustering/notebooks/data/xrd_data (part 23)

File: ML_20220718_56_SJD_4_LaB6-2min.csv
;,2THETA,
5.0000,127
5.1858,118
5.3715,110
5.5573,120
5.7430,118
5.9288,97
6.1145,99
6.3003,78
6.4860,78
6.6718,87
6.8576,75
7.0433,70
7.2291,81
7.4148,73
7.6006,101
7.7863,86
7.9721,104
8.1579,92
8.3436,101
8.5294,86
8.7151,113
8.9009,106
9.0866,90
9.2724,119
9.4581,118
9.6439,94
9.8297,126
10.0154,120
10.2012,111
10.3869,112
10.5727,128
10.7584,101
10.9442,110
11.1299,105
11.3157,130
11.5015,113
11.6872,131
11.8730,126
12.0587,120
12.2445,120
12.4302,90
12.6160,117
12.8018,117
12.9875,83
13.1733,96
13.3590,103
13.5448,93
13.7305,73
13.9163,78
14.1020,77
14.2878,79
14.4736,82
14.6593,86
14.8451,81
15.0308,83
15.2166,94
15.4023,96
15.5881,81
15.7738,88
15.9596,73
16.1454,73
16.3311,84
16.5169,76
16.7026,81
16.8884,88
17.0741,82
17.2599,76
17.4457,78
17.6314,66
17.8172,86
18.0029,77
18.1887,77
18.3744,69
18.5602,87
18.7459,77
18.9317,90
19.1175,77
19.3032,77
19.4890,94
19.6747,92
19.8605,91
20.0462,88
20.2320,86
20.4177,83
20.6035,95
20.7893,91
20.9750,91
21.1608,102
21.3465,253
21.5323,94
21.7180,103
21.9038,98
22.0896,82
22.2753,75
22.4611,100
22.6468,113
22.8326,120
23.0183,109
23.2041,92
23.3898,102
23.5756,85
23.7614,99
23.9471,105
24.1329,111
24.3186,96
24.5044,101
24.6901,95
24.8759,97
25.0616,91
25.2474,101
25.4332,85
25.6189,82
25.8047,99
25.9904,112
26.1762,91
26.3619,89
26.5477,106
26.7335,88
26.9192,98
27.1050,105
27.2907,123
27.4765,81
27.6622,95
27.8480,87
28.0337,88
28.2195,79
28.4053,84
28.5910,80
28.7768,73
28.9625,96
29.1483,78
29.3340,75
29.5198,80
29.7055,86
29.8913,67
30.0771,88
30.2628,66
30.4486,116
30.6343,72
30.8201,70
31.0058,73
31.1916,78
31.3774,73
31.5631,57
31.7489,68
31.9346,76
32.1204,68
32.3061,83
32.4919,81
32.6776,62
32.8634,52
33.0492,72
33.2349,58
33.4207,58
33.6064,58
33.7922,48
33.9779,48
34.1637,49
34.3494,60
34.5352,50
34.7210,66
34.9067,68
35.0925,55
35.2782,51
35.4640,50
35.6497,54
35.8355,43
36.0213,44
36.2070,40
36.3928,44
36.5785,36
36.7643,40
36.9500,40
37.1358,38
37.3215,49
37.5073,61
37.6931,40
37.8788,51
38.0646,32
38.2503,47
38.4361,32
38.6218,40
38.8076,39
38.9933,31
39.1791,26
39.3649,47
39.5506,43
39.7364,50
39.9221,47
40.1079,29
40.2936,40
40.4794,41
40.6652,26
40.8509,33
41.0367,41
41.2224,39
41.4082,39
41.5939,41
41.7797,47
41.9654,38
42.1512,29
42.3370,22
42.5227,36
42.7085,41
42.8942,33
43.0800,54
43.2657,39
43.4515,38
43.6372,44
43.8230,29
44.0088,48
44.1945,44
44.3803,31
44.5660,29
44.7518,42
44.9375,31
45.1233,25
45.3091,43
45.4948,29
45.6806,27
45.8663,41
46.0521,33
46.2378,43
46.4236,34
46.6093,41
46.7951,29
46.9809,27
47.1666,43
47.3524,33
47.5381,30
47.7239,28
47.9096,25
48.0954,21
48.2811,32
48.4669,23
48.6527,23
48.8384,30
49.0242,32
49.2099,37
49.3957,25
49.5814,32
49.7672,33
49.9530,35
50.1387,24
50.3245,24
50.5102,31
50.6960,27
50.8817,35
51.0675,30
51.2532,29
51.4390,41
51.6248,27
51.8105,36
51.9963,32
52.1820,27
52.3678,36
52.5535,20
52.7393,25
52.9250,29
53.1108,38
53.2966,25
53.4823,23
53.6681,32
53.8538,35
54.0396,37
54.2253,30
54.4111,23
54.5969,27
54.7826,24
54.9684,27
55.1541,22
55.3399,31
55.5256,35
55.7114,31
55.8971,24
56.0829,23
56.2687,29
56.4544,32
56.6402,26
56.8259,29
57.0117,24
57.1974,23
57.3832,36
57.5689,23
57.7547,18
57.9405,28
58.1262,27
58.3120,29
58.4977,27
58.6835,23
58.8692,22
59.0550,30
59.2408,28
59.4265,28
59.6123,24
59.7980,26
59.9838,26
60.0024,33

File: ML_20220718_56_SJD_4_LaB6-4min.csv
;,2THETA,
5.0000,278
5.1858,246
5.3715,234
5.5573,231
5.7430,217
5.9288,183
6.1145,209
6.3003,189
6.4860,169
6.6718,187
6.8576,163
7.0433,148
7.2291,130
7.4148,176
7.6006,176
7.7863,166
7.9721,165
8.1579,189
8.3436,228
8.5294,171
8.7151,210
8.9009,221
9.0866,196
9.2724,197
9.4581,201
9.6439,222
9.8297,244
10.0154,248
10.2012,230
10.3869,265
10.5727,253
10.7584,243
10.9442,245
11.1299,228
11.3157,239
11.5015,237
11.6872,236
11.8730,243
12.0587,234
12.2445,236
12.4302,228
12.6160,220
12.8018,203
12.9875,211
13.1733,211
13.3590,197
13.5448,183
13.7305,190
13.9163,192
14.1020,195
14.2878,171
14.4736,186
14.6593,161
14.8451,147
15.0308,191
15.2166,185
15.4023,159
15.5881,195
15.7738,171
15.9596,167
16.1454,144
16.3311,171
16.5169,150
16.7026,173
16.8884,167
17.0741,171
17.2599,171
17.4457,173
17.6314,166
17.8172,165
18.0029,167
18.1887,160
18.3744,163
18.5602,170
18.7459,175
18.9317,153
19.1175,166
19.3032,155
19.4890,158
19.6747,202
19.8605,181
20.0462,165
20.2320,191
20.4177,188
20.6035,193
20.7893,191
20.9750,197
21.1608,228
21.3465,486
21.5323,214
21.7180,165
21.9038,182
22.0896,198
22.2753,190
22.4611,199
22.6468,201
22.8326,194
23.0183,188
23.2041,223
23.3898,214
23.5756,208
23.7614,181
23.9471,205
24.1329,200
24.3186,216
24.5044,183
24.6901,194
24.8759,228
25.0616,236
25.2474,207
25.4332,198
25.6189,194
25.8047,188
25.9904,203
26.1762,212
26.3619,192
26.5477,216
26.7335,175
26.9192,179
27.1050,206
27.2907,189
27.4765,188
27.6622,181
27.8480,173
28.0337,165
28.2195,184
28.4053,160
28.5910,154
28.7768,174
28.9625,181
29.1483,165
29.3340,165
29.5198,147
29.7055,142
29.8913,139
30.0771,173
30.2628,173
30.4486,254
30.6343,145
30.8201,146
31.0058,132
31.1916,151
31.3774,164
31.5631,152
31.7489,139
31.9346,110
32.1204,127
32.3061,126
32.4919,141
32.6776,133
32.8634,142
33.0492,129
33.2349,111
33.4207,125
33.6064,90
33.7922,108
33.9779,93
34.1637,111
34.3494,118
34.5352,126
34.7210,142
34.9067,104
35.0925,117
35.2782,91
35.4640,96
35.6497,100
35.8355,111
36.0213,112
36.2070,86
36.3928,90
36.5785,108
36.7643,104
36.9500,100
37.1358,83
37.3215,100
37.5073,105
37.6931,79
37.8788,79
38.0646,82
38.2503,76
38.4361,85
38.6218,79
38.8076,87
38.9933,80
39.1791,75
39.3649,78
39.5506,88
39.7364,68
39.9221,82
40.1079,72
40.2936,79
40.4794,89
40.6652,73
40.8509,77
41.0367,68
41.2224,81
41.4082,65
41.5939,58
41.7797,74
41.9654,72
42.1512,69
42.3370,77
42.5227,73
42.7085,75
42.8942,69
43.0800,67
43.2657,71
43.4515,84
43.6372,76
43.8230,78
44.0088,71
44.1945,64
44.3803,92
44.5660,82
44.7518,84
44.9375,67
45.1233,72
45.3091,73
45.4948,64
45.6806,69
45.8663,63
46.0521,65
46.2378,52
46.4236,65
46.6093,75
46.7951,73
46.9809,63
47.1666,81
47.3524,64
47.5381,69
47.7239,51
47.9096,67
48.0954,59
48.2811,73
48.4669,73
48.6527,59
48.8384,65
49.0242,78
49.2099,59
49.3957,63
49.5814,66
49.7672,73
49.9530,55
50.1387,85
50.3245,77
50.5102,68
50.6960,68
50.8817,61
51.0675,50
51.2532,60
51.4390,79
51.6248,54
51.8105,58
51.9963,50
52.1820,45
52.3678,46
52.5535,58
52.7393,57
52.9250,72
53.1108,52
53.2966,55
53.4823,53
53.6681,49
53.8538,64
54.0396,67
54.2253,50
54.4111,57
54.5969,65
54.7826,58
54.9684,51
55.1541,69
55.3399,59
55.5256,61
55.7114,71
55.8971,74
56.0829,67
56.2687,56
56.4544,52
56.6402,47
56.8259,57
57.0117,62
57.1974,62
57.3832,74
57.5689,52
57.7547,53
57.9405,59
58.1262,61
58.3120,51
58.4977,54
58.6835,48
58.8692,55
59.0550,66
59.2408,57
59.4265,62
59.6123,62
59.7980,52
59.9838,47
60.0024,64

File: ML_20220718_57_SJD_4_LaB6-1min.csv
;,2THETA,
5.0000,110
5.1858,95
5.3715,77
5.5573,81
5.7430,80
5.9288,88
6.1145,68
6.3003,69
6.4860,71
6.6718,72
6.8576,64
7.0433,55
7.2291,65
7.4148,53
7.6006,54
7.7863,60
7.9721,71
8.1579,75
8.3436,71
8.5294,71
8.7151,69
8.9009,81
9.0866,79
9.2724,71
9.4581,84
9.6439,78
9.8297,87
10.0154,82
10.2012,96
10.3869,95
10.5727,81
10.7584,87
10.9442,89
11.1299,83
11.3157,86
11.5015,89
11.6872,91
11.8730,74
12.0587,76
12.2445,83
12.4302,88
12.6160,66
12.8018,68
12.9875,58
13.1733,90
13.3590,61
13.5448,70
13.7305,57
13.9163,84
14.1020,77
14.2878,54
14.4736,57
14.6593,63
14.8451,62
15.0308,63
15.2166,68
15.4023,53
15.5881,61
15.7738,48
15.9596,69
16.1454,60
16.3311,59
16.5169,59
16.7026,51
16.8884,71
17.0741,52
17.2599,54
17.4457,63
17.6314,60
17.8172,58
18.0029,49
18.1887,55
18.3744,62
18.5602,65
18.7459,69
18.9317,59
19.1175,68
19.3032,65
19.4890,57
19.6747,82
19.8605,68
20.0462,70
20.2320,75
20.4177,67
20.6035,69
20.7893,62
20.9750,68
21.1608,73
21.3465,170
21.5323,77
21.7180,55
21.9038,78
22.0896,59
22.2753,76
22.4611,69
22.6468,69
22.8326,72
23.0183,66
23.2041,79
23.3898,80
23.5756,69
23.7614,69
23.9471,72
24.1329,71
24.3186,88
24.5044,79
24.6901,59
24.8759,78
25.0616,64
25.2474,57
25.4332,71
25.6189,58
25.8047,82
25.9904,64
26.1762,64
26.3619,79
26.5477,62
26.7335,69
26.9192,66
27.1050,74
27.2907,83
27.4765,80
27.6622,77
27.8480,42
28.0337,58
28.2195,61
28.4053,61
28.5910,62
28.7768,71
28.9625,61
29.1483,55
29.3340,56
29.5198,62
29.7055,46
29.8913,53
30.0771,58
30.2628,71
30.4486,88
30.6343,63
30.8201,63
31.0058,63
31.1916,51
31.3774,48
31.5631,52
31.7489,44
31.9346,58
32.1204,45
32.3061,51
32.4919,62
32.6776,45
32.8634,36
33.0492,31
33.2349,48
33.4207,36
33.6064,21
33.7922,43
33.9779,36
34.1637,37
34.3494,41
34.5352,35
34.7210,44
34.9067,42
35.0925,31
35.2782,52
35.4640,41
35.6497,34
35.8355,34
36.0213,47
36.2070,38
36.3928,34
36.5785,33
36.7643,34
36.9500,39
37.1358,30
37.3215,35
37.5073,42
37.6931,37
37.8788,26
38.0646,27
38.2503,33
38.4361,38
38.6218,33
38.8076,34
38.9933,23
39.1791,26
39.3649,26
39.5506,26
39.7364,20
39.9221,31
40.1079,35
40.2936,25
40.4794,28
40.6652,35
40.8509,26
41.0367,33
41.2224,31
41.4082,29
41.5939,17
41.7797,28
41.9654,22
42.1512,26
42.3370,26
42.5227,35
42.7085,30
42.8942,28
43.0800,26
43.2657,30
43.4515,22
43.6372,34
43.8230,25
44.0088,17
44.1945,26
44.3803,27
44.5660,25
44.7518,29
44.9375,25
45.1233,22
45.3091,29
45.4948,30
45.6806,31
45.8663,18
46.0521,18
46.2378,17
46.4236,33
46.6093,22
46.7951,34
46.9809,32
47.1666,19
47.3524,31
47.5381,27
47.7239,36
47.9096,22
48.0954,17
48.2811,22
48.4669,29
48.6527,31
48.8384,23
49.0242,23
49.2099,30
49.3957,31
49.5814,26
49.7672,26
49.9530,17
50.1387,19
50.3245,20
50.5102,14
50.6960,22
50.8817,26
51.0675,21
51.2532,18
51.4390,30
51.6248,21
51.8105,31
51.9963,27
52.1820,16
52.3678,13
52.5535,27
52.7393,26
52.9250,23
53.1108,20
53.2966,12
53.4823,26
53.6681,24
53.8538,21
54.0396,8
54.2253,22
54.4111,13
54.5969,16
54.7826,20
54.9684,24
55.1541,21
55.3399,26
55.5256,17
55.7114,13
55.8971,18
56.0829,27
56.2687,17
56.4544,21
56.6402,21
56.8259,14
57.0117,21
57.1974,21
57.3832,14
57.5689,24
57.7547,24
57.9405,18
58.1262,14
58.3120,31
58.4977,21
58.6835,19
58.8692,21
59.0550,9
59.2408,21
59.4265,10
59.6123,28
59.7980,21
59.9838,23
60.0024,19

File: ML_20220718_57_SJD_4_LaB6-2min.csv
;,2THETA,
5.0000,139
5.1858,135
5.3715,105
5.5573,103
5.7430,120
5.9288,83
6.1145,98
6.3003,85
6.4860,97
6.6718,72
6.8576,94
7.0433,69
7.2291,93
7.4148,79
7.6006,88
7.7863,70
7.9721,86
8.1579,78
8.3436,70
8.5294,106
8.7151,95
8.9009,100
9.0866,119
9.2724,110
9.4581,130
9.6439,98
9.8297,116
10.0154,115
10.2012,131
10.3869,115
10.5727,123
10.7584,119
10.9442,109
11.1299,112
11.3157,111
11.5015,104
11.6872,105
11.8730,107
12.0587,108
12.2445,101
12.4302,112
12.6160,102
12.8018,86
12.9875,94
13.1733,106
13.3590,94
13.5448,97
13.7305,91
13.9163,93
14.1020,87
14.2878,82
14.4736,74
14.6593,67
14.8451,89
15.0308,86
15.2166,75
15.4023,66
15.5881,73
15.7738,70
15.9596,91
16.1454,81
16.3311,80
16.5169,70
16.7026,83
16.8884,75
17.0741,65
17.2599,78
17.4457,80
17.6314,77
17.8172,77
18.0029,77
18.1887,82
18.3744,88
18.5602,86
18.7459,82
18.9317,90
19.1175,93
19.3032,77
19.4890,81
19.6747,84
19.8605,84
20.0462,87
20.2320,94
20.4177,95
20.6035,86
20.7893,82
20.9750,88
21.1608,116
21.3465,256
21.5323,93
21.7180,104
21.9038,107
22.0896,85
22.2753,116
22.4611,96
22.6468,124
22.8326,81
23.0183,125
23.2041,98
23.3898,100
23.5756,83
23.7614,112
23.9471,100
24.1329,93
24.3186,114
24.5044,114
24.6901,98
24.8759,108
25.0616,88
25.2474,97
25.4332,92
25.6189,88
25.8047,93
25.9904,96
26.1762,112
26.3619,91
26.5477,92
26.7335,109
26.9192,96
27.1050,105
27.2907,117
27.4765,91
27.6622,85
27.8480,89
28.0337,75
28.2195,87
28.4053,86
28.5910,87
28.7768,86
28.9625,99
29.1483,75
29.3340,76
29.5198,67
29.7055,94
29.8913,79
30.0771,79
30.2628,68
30.4486,108
30.6343,71
30.8201,85
31.0058,73
31.1916,72
31.3774,69
31.5631,56
31.7489,66
31.9346,66
32.1204,62
32.3061,95
32.4919,77
32.6776,75
32.8634,56
33.0492,59
33.2349,61
33.4207,59
33.6064,51
33.7922,57
33.9779,62
34.1637,65
34.3494,51
34.5352,45
34.7210,78
34.9067,67
35.0925,49
35.2782,56
35.4640,52
35.6497,47
35.8355,44
36.0213,49
36.2070,51
36.3928,41
36.5785,41
36.7643,52
36.9500,38
37.1358,48
37.3215,39
37.5073,57
37.6931,47
37.8788,37
38.0646,34
38.2503,45
38.4361,31
38.6218,39
38.8076,36
38.9933,36
39.1791,43
39.3649,30
39.5506,28
39.7364,41
39.9221,34
40.1079,40
40.2936,40
40.4794,43
40.6652,50
40.8509,50
41.0367,36
41.2224,28
41.4082,29
41.5939,33
41.7797,22
41.9654,41
42.1512,35
42.3370,35
42.5227,48
42.7085,41
42.8942,41
43.0800,35
43.2657,39
43.4515,49
43.6372,55
43.8230,25
44.0088,38
44.1945,38
44.3803,31
44.5660,34
44.7518,29
44.9375,31
45.1233,33
45.3091,30
45.4948,31
45.6806,36
45.8663,40
46.0521,27
46.2378,36
46.4236,30
46.6093,39
46.7951,31
46.9809,22
47.1666,33
47.3524,28
47.5381,29
47.7239,35
47.9096,30
48.0954,34
48.2811,35
48.4669,30
48.6527,17
48.8384,25
49.0242,50
49.2099,27
49.3957,34
49.5814,26
49.7672,35
49.9530,37
50.1387,35
50.3245,29
50.5102,28
50.6960,23
50.8817,40
51.0675,30
51.2532,33
51.4390,32
51.6248,22
51.8105,30
51.9963,31
52.1820,26
52.3678,30
52.5535,29
52.7393,25
52.9250,26
53.1108,18
53.2966,36
53.4823,22
53.6681,28
53.8538,26
54.0396,33
54.2253,45
54.4111,18
54.5969,22
54.7826,31
54.9684,32
55.1541,28
55.3399,28
55.5256,17
55.7114,30
55.8971,27
56.0829,30
56.2687,36
56.4544,26
56.6402,34
56.8259,28
57.0117,24
57.1974,34
57.3832,27
57.5689,26
57.7547,25
57.9405,32
58.1262,21
58.3120,33
58.4977,44
58.6835,24
58.8692,36
59.0550,23
59.2408,29
59.4265,27
59.6123,28
59.7980,31
59.9838,25
60.0024,18

File: ML_20220718_57_SJD_4_LaB6-4min.uxd
; (content of file Y:\Sam\Apurva-07-20-2022\puck4\ML_20220718_57_SJD_4_LaB6-4min.raw)
_FILEVERSION = 3
_SAMPLE = ML_20220718_57_SJD_4_LaB6-4min
_+SAMPLE =
_SITE = USA
_USER = Administrator
_GONIOMETER_CODE = 20
; Goniometer : D8 theta/2theta, stage : Unknown
_ATTACHMENTS_CODE = 0
_GONIOMETER_RADIUS = 200.5
_FIXED_DIVSLIT = 0.6
_FIXED_SAMPLESLIT = 0
_SOLLER_SLITS = 2
_FIXED_DETSLIT = 9.55
_MONOCHROMATOR = 0
; Incident beam monochromator : None
_SOLLER_SLITS_2 = N
_THIN_FILM = N
_BETA_FILTER = Y
_FIXED_ANTISLIT = 5.89
_ANALYZER_CODE = 0
; Received beam analyzer : None
_DATEMEASURED = "26-Jul-2022 14:39:46"
_WL_UNIT = A
_WL1 = 1.5406
_WL2 = 1.54439
_WL3 = 1.39222
_WLRATIO = 0.5
_ANODE = Cu
_V4_INF_CREATOR = XRDWizard
_V4_INF_CREATOR_VERSION = V2.9.0.22
_V4_INF_WIZARD_VERSION = V2.9.0.22
_V4_INF_WIZARD_ADDINS = V2.9.0.22
_V4_INF_WIZARD_DOCTYPE = XRD
_V4_INF_OSUSER = McQueenLab
_V4_INF_USER = Administrator
_V4_INF_SITE = USA
_V4_INF_SAMPLEID = ML_20220718_57_SJD_4_LaB6-4min

; Data for range 1
_DRIVE = COUPLED
_STEPTIME = 11.28
_STEPSIZE = 0.0185756
_STEPMODE = C
_START = 5
_THETA = 2.5
_2THETA = 5
_KHI = 0
_PHI = 0
_X = 0
_Y = 0
_Z = 0
_DETECTOR = 5
; Detector type : Unknown
_DETECTORSLIT = unkn
_AUX1 = 0
_AUX2 = 0
_AUX3 = 0
_TIMESTARTED = 21
_TEMP_RATE = -1
_TEMP_DELAY = -1
_KV = 40
_MA = 40
_RANGE_WL = 1.5406
_3DPLANE = 0
_V4_ADDITIONALDETECTOR = 257
_V4_PSD2THETA = 49.8039
_V4_PSDCHANNEL1 = 0
_V4_PSDAPERTURE = 12.68
_V4_PSDTYPE = 5
_V4_PSDFIXED = 0
_V4_COUNTERS_MASK = 4096
_V4_DRIVES_MASK = 0
_V4_ENCODERS_MASK = 0
_2THETACOUNTS = 1
; 2THETA  PSD
   5.0000        289
   5.1858        246
   5.3715        225
   5.5573        221
   5.7430        196
   5.9288        213
   6.1145        199
   6.3003        178
   6.4860        183
   6.6718        158
   6.8576        160
   7.0433        165
   7.2291        166
   7.4148        167
   7.6006        157
   7.7863        172
   7.9721        182
   8.1579        217
   8.3436        207
   8.5294        229
   8.7151        227
   8.9009        214
   9.0866        183
   9.2724        199
   9.4581        229
   9.6439        246
   9.8297        228
  10.0154        221
  10.2012        254
  10.3869        257
  10.5727        255
  10.7584        234
  10.9442        233
  11.1299        234
  11.3157        241
  11.5015        232
  11.6872        214
  11.8730        226
  12.0587        237
  12.2445        245
  12.4302        228
  12.6160        212
  12.8018        214
  12.9875        183
  13.1733        207
  13.3590        212
  13.5448        188
  13.7305        209
  13.9163        172
  14.1020        201
  14.2878        176
  14.4736        188
  14.6593        163
  14.8451        162
  15.0308        168
  15.2166        169
  15.4023        171
  15.5881        168
  15.7738        161
  15.9596        185
  16.1454        159
  16.3311        160
  16.5169        164
  16.7026        168
  16.8884        158
  17.0741        184
  17.2599        165
  17.4457        143
  17.6314        158
  17.8172        168
  18.0029        183
  18.1887        180
  18.3744        164
  18.5602        173
  18.7459        168
  18.9317        193
  19.1175        185
  19.3032        167
  19.4890        170
  19.6747        181
  19.8605        179
  20.0462        174
  20.2320        193
  20.4177        195
  20.6035        159
  20.7893        209
  20.9750        205
  21.1608        239
  21.3465        532
  21.5323        191
  21.7180        202
  21.9038        202
  22.0896        213
  22.2753        197
  22.4611        192
  22.6468        193
  22.8326        220
  23.0183        215
  23.2041        195
  23.3898        230
  23.5756        208
  23.7614        179
  23.9471        207
  24.1329        163
  24.3186        243
  24.5044        217
  24.6901        215
  24.8759        193
  25.0616        216
  25.2474        194
  25.4332        204
  25.6189        192
  25.8047        193
  25.9904        216
  26.1762        203
  26.3619        195
  26.5477        192
  26.7335        208
  26.9192        176
  27.1050        193
  27.2907        212
  27.4765        183
  27.6622        164
  27.8480        180
  28.0337        169
  28.2195        156
  28.4053        179
  28.5910        146
  28.7768        141
  28.9625        153
  29.1483        162
  29.3340        148
  29.5198        157
  29.7055        151
  29.8913        145
  30.0771        152
  30.2628        174
  30.4486        255
  30.6343        137
  30.8201        153
  31.0058        160
  31.1916        134
  31.3774        143
  31.5631        135
  31.7489        160
  31.9346        140
  32.1204        152
  32.3061        134
  32.4919        143
  32.6776        124
  32.8634        133
  33.0492        129
  33.2349        141
  33.4207        132
  33.6064        130
  33.7922        124
  33.9779        129
  34.1637        101
  34.3494         91
  34.5352        110
  34.7210        137
  34.9067        113
  35.0925        103
  35.2782        121
  35.4640        105
  35.6497         82
  35.8355         99
  36.0213         91
  36.2070         96
  36.3928         86
  36.5785         98
  36.7643        109
  36.9500         75
  37.1358         78
  37.3215         94
  37.5073        141
  37.6931        103
  37.8788        100
  38.0646        100
  38.2503         96
  38.4361         86
  38.6218         70
  38.8076         77
  38.9933         75
  39.1791         85
  39.3649         77
  39.5506         82
  39.7364         84
  39.9221         63
  40.1079         63
  40.2936         89
  40.4794         62
  40.6652         74
  40.8509         78
  41.0367         97
  41.2224        108
  41.4082         77
  41.5939         70
  41.7797         91
  41.9654         66
  42.1512         83
  42.3370         68
  42.5227         93
  42.7085         69
  42.8942         69
  43.0800         81
  43.2657         95
  43.4515         84
  43.6372        100
  43.8230         86
  44.0088         71
  44.1945         94
  44.3803         70
  44.5660         81
  44.7518         85
  44.9375         81
  45.1233         64
  45.3091         62
  45.4948         70
  45.6806         67
  45.8663         56
  46.0521         52
  46.2378         70
  46.4236         61
  46.6093         53
  46.7951         66
  46.9809         63
  47.1666         76
  47.3524         59
  47.5381         71
  47.7239         59
  47.9096         60
  48.0954         71
  48.2811         57
  48.4669         73
  48.6527         72
  48.8384         59
  49.0242         77
  49.2099         55
  49.3957         52
  49.5814         62
  49.7672         52
  49.9530         75
  50.1387         63
  50.3245         62
  50.5102         66
  50.6960         44
  50.8817         50
  51.0675         46
  51.2532         56
  51.4390         70
  51.6248         75
  51.8105         68
  51.9963         61
  52.1820         48
  52.3678         55
  52.5535         67
  52.7393         56
  52.9250         54
  53.1108         76
  53.2966         55
  53.4823         56
  53.6681         62
  53.8538         72
  54.0396         71
  54.2253         70
  54.4111         57
  54.5969         44
  54.7826         47
  54.9684         46
  55.1541         55
  55.3399         54
  55.5256         77
  55.7114         42
  55.8971         62
  56.0829         77
  56.2687         51
  56.4544         59
  56.6402         64
  56.8259         60
  57.0117         71
  57.1974         54
  57.3832         51
  57.5689         56
  57.7547         59
  57.9405         54
  58.1262         68
  58.3120         49
  58.4977         55
  58.6835         45
  58.8692         56
  59.0550         57
  59.2408         52
  59.4265         55
  59.6123         48
  59.7980         58
  59.9838         48
  60.0024         62

File: ML_20220718_58_SJD_4_LaB6-1min.csv
;,2THETA,
5.0000,92
5.1858,85
5.3715,73
5.5573,94
5.7430,80
5.9288,66
6.1145,101
6.3003,63
6.4860,56
6.6718,81
6.8576,50
7.0433,60
7.2291,63
7.4148,54
7.6006,52
7.7863,75
7.9721,72
8.1579,76
8.3436,76
8.5294,79
8.7151,70
8.9009,73
9.0866,90
9.2724,99
9.4581,110
9.6439,74
9.8297,81
10.0154,80
10.2012,94
10.3869,83
10.5727,89
10.7584,96
10.9442,89
11.1299,73
11.3157,81
11.5015,98
11.6872,88
11.8730,87
12.0587,92
12.2445,73
12.4302,71
12.6160,75
12.8018,96
12.9875,69
13.1733,71
13.3590,85
13.5448,68
13.7305,64
13.9163,65
14.1020,72
14.2878,65
14.4736,69
14.6593,58
14.8451,56
15.0308,58
15.2166,58
15.4023,49
15.5881,57
15.7738,55
15.9596,51
16.1454,57
16.3311,61
16.5169,56
16.7026,53
16.8884,59
17.0741,62
17.2599,63
17.4457,64
17.6314,40
17.8172,64
18.0029,58
18.1887,66
18.3744,84
18.5602,49
18.7459,77
18.9317,65
19.1175,60
19.3032,70
19.4890,64
19.6747,56
19.8605,74
20.0462,71
20.2320,59
20.4177,59
20.6035,70
20.7893,93
20.9750,66
21.1608,83
21.3465,193
21.5323,73
21.7180,66
21.9038,68
22.0896,75
22.2753,81
22.4611,84
22.6468,70
22.8326,63
23.0183,90
23.2041,80
23.3898,81
23.5756,75
23.7614,66
23.9471,79
24.1329,79
24.3186,79
24.5044,84
24.6901,85
24.8759,79
25.0616,63
25.2474,66
25.4332,80
25.6189,80
25.8047,70
25.9904,64
26.1762,73
26.3619,66
26.5477,64
26.7335,75
26.9192,78
27.1050,78
27.2907,62
27.4765,50
27.6622,70
27.8480,65
28.0337,68
28.2195,60
28.4053,71
28.5910,54
28.7768,63
28.9625,59
29.1483,54
29.3340,55
29.5198,63
29.7055,60
29.8913,50
30.0771,56
30.2628,63
30.4486,89
30.6343,49
30.8201,77
31.0058,56
31.1916,60
31.3774,31
31.5631,53
31.7489,53
31.9346,37
32.1204,43
32.3061,54
32.4919,62
32.6776,42
32.8634,41
33.0492,49
33.2349,41
33.4207,41
33.6064,37
33.7922,36
33.9779,45
34.1637,43
34.3494,45
34.5352,52
34.7210,50
34.9067,46
35.0925,34
35.2782,54
35.4640,40
35.6497,23
35.8355,33
36.0213,33
36.2070,32
36.3928,35
36.5785,36
36.7643,29
36.9500,29
37.1358,25
37.3215,29
37.5073,36
37.6931,36
37.8788,34
38.0646,27
38.2503,21
38.4361,41
38.6218,40
38.8076,30
38.9933,40
39.1791,35
39.3649,30
39.5506,38
39.7364,32
39.9221,26
40.1079,27
40.2936,24
40.4794,24
40.6652,19
40.8509,19
41.0367,31
41.2224,24
41.4082,31
41.5939,26
41.7797,29
41.9654,22
42.1512,24
42.3370,33
42.5227,22
42.7085,28
42.8942,31
43.0800,18
43.2657,34
43.4515,33
43.6372,33
43.8230,25
44.0088,30
44.1945,25
44.3803,22
44.5660,22
44.7518,20
44.9375,30
45.1233,24
45.3091,18
45.4948,23
45.6806,30
45.8663,26
46.0521,24
46.2378,18
46.4236,26
46.6093,30
46.7951,18
46.9809,28
47.1666,20
47.3524,24
47.5381,31
47.7239,26
47.9096,23
48.0954,18
48.2811,17
48.4669,14
48.6527,23
48.8384,21
49.0242,31
49.2099,23
49.3957,19
49.5814,20
49.7672,23
49.9530,30
50.1387,26
50.3245,18
50.5102,33
50.6960,23
50.8817,25
51.0675,32
51.2532,21
51.4390,20
51.6248,21
51.8105,25
51.9963,23
52.1820,19
52.3678,25
52.5535,21
52.7393,26
52.9250,15
53.1108,23
53.2966,19
53.4823,34
53.6681,23
53.8538,20
54.0396,29
54.2253,27
54.4111,24
54.5969,23
54.7826,17
54.9684,19
55.1541,24
55.3399,18
55.5256,19
55.7114,29
55.8971,25
56.0829,22
56.2687,22
56.4544,26
56.6402,22
56.8259,17
57.0117,26
57.1974,19
57.3832,21
57.5689,21
57.7547,22
57.9405,23
58.1262,27
58.3120,11
58.4977,20
58.6835,16
58.8692,25
59.0550,14
59.2408,18
59.4265,22
59.6123,30
59.7980,17
59.9838,21
60.0024,12