Folder: xrd_clustering/notebooks/data/xrd_data (part 41)

File: ML_20220721_23_SJD_4_LaB6-4min.uxd
; (content of file Y:\Sam\Apurva-07-20-2022\puck1\ML_20220721_23_SJD_0_LaB6-4min.raw)
_FILEVERSION = 3
_SAMPLE = ML_20220721_23_SJD_0_LaB6-4min
_+SAMPLE =
_SITE = USA
_USER = Administrator
_GONIOMETER_CODE = 20
; Goniometer : D8 theta/2theta, stage : Unknown
_ATTACHMENTS_CODE = 0
_GONIOMETER_RADIUS = 200.5
_FIXED_DIVSLIT = 0.6
_FIXED_SAMPLESLIT = 0
_SOLLER_SLITS = 2
_FIXED_DETSLIT = 9.55
_MONOCHROMATOR = 0
; Incident beam monochromator : None
_SOLLER_SLITS_2 = N
_THIN_FILM = N
_BETA_FILTER = Y
_FIXED_ANTISLIT = 5.89
_ANALYZER_CODE = 0
; Received beam analyzer : None
_DATEMEASURED = "25-Jul-2022 15:35:39"
_WL_UNIT = A
_WL1 = 1.5406
_WL2 = 1.54439
_WL3 = 1.39222
_WLRATIO = 0.5
_ANODE = Cu
_V4_INF_CREATOR = XRDWizard
_V4_INF_CREATOR_VERSION = V2.9.0.22
_V4_INF_WIZARD_VERSION = V2.9.0.22
_V4_INF_WIZARD_ADDINS = V2.9.0.22
_V4_INF_WIZARD_DOCTYPE = XRD
_V4_INF_OSUSER = McQueenLab
_V4_INF_USER = Administrator
_V4_INF_SITE = USA
_V4_INF_SAMPLEID = ML_20220721_23_SJD_0_LaB6-4min

; Data for range 1
_DRIVE = COUPLED
_STEPTIME = 11.28
_STEPSIZE = 0.0185756
_STEPMODE = C
_START = 5
_THETA = 2.5
_2THETA = 5
_KHI = 0
_PHI = 0
_X = 0
_Y = 0
_Z = 0
_DETECTOR = 5
; Detector type : Unknown
_DETECTORSLIT = unkn
_AUX1 = 0
_AUX2 = 0
_AUX3 = 0
_TIMESTARTED = 15
_TEMP_RATE = -1
_TEMP_DELAY = -1
_KV = 40
_MA = 40
_RANGE_WL = 1.5406
_3DPLANE = 0
_V4_ADDITIONALDETECTOR = 257
_V4_PSD2THETA = 3.365
_V4_PSDCHANNEL1 = 0
_V4_PSDAPERTURE = 12.68
_V4_PSDTYPE = 5
_V4_PSDFIXED = 0
_V4_COUNTERS_MASK = 4096
_V4_DRIVES_MASK = 0
_V4_ENCODERS_MASK = 0
_2THETACOUNTS = 1
; 2THETA  PSD
   5.0000        286
   5.1858        277
   5.3715        215
   5.5573        253
   5.7430        226
   5.9288        219
   6.1145        199
   6.3003        196
   6.4860        172
   6.6718        176
   6.8576        154
   7.0433        167
   7.2291        186
   7.4148        186
   7.6006        150
   7.7863        173
   7.9721        197
   8.1579        208
   8.3436        190
   8.5294        176
   8.7151        208
   8.9009        215
   9.0866        229
   9.2724        220
   9.4581        234
   9.6439        236
   9.8297        239
  10.0154        227
  10.2012        239
  10.3869        240
  10.5727        244
  10.7584        238
  10.9442        226
  11.1299        233
  11.3157        256
  11.5015        239
  11.6872        250
  11.8730        240
  12.0587        238
  12.2445        224
  12.4302        194
  12.6160        211
  12.8018        237
  12.9875        222
  13.1733        209
  13.3590        236
  13.5448        183
  13.7305        167
  13.9163        193
  14.1020        177
  14.2878        188
  14.4736        185
  14.6593        161
  14.8451        172
  15.0308        149
  15.2166        156
  15.4023        161
  15.5881        190
  15.7738        174
  15.9596        164
  16.1454        160
  16.3311        144
  16.5169        192
  16.7026        147
  16.8884        169
  17.0741        149
  17.2599        173
  17.4457        188
  17.6314        176
  17.8172        167
  18.0029        173
  18.1887        151
  18.3744        161
  18.5602        182
  18.7459        159
  18.9317        179
  19.1175        173
  19.3032        159
  19.4890        172
  19.6747        179
  19.8605        176
  20.0462        183
  20.2320        183
  20.4177        197
  20.6035        192
  20.7893        195
  20.9750        192
  21.1608        248
  21.3465        507
  21.5323        209
  21.7180        194
  21.9038        194
  22.0896        201
  22.2753        202
  22.4611        189
  22.6468        177
  22.8326        183
  23.0183        207
  23.2041        189
  23.3898        186
  23.5756        200
  23.7614        233
  23.9471        225
  24.1329        217
  24.3186        235
  24.5044        199
  24.6901        207
  24.8759        208
  25.0616        216
  25.2474        198
  25.4332        182
  25.6189        206
  25.8047        223
  25.9904        189
  26.1762        198
  26.3619        190
  26.5477        191
  26.7335        190
  26.9192        183
  27.1050        207
  27.2907        225
  27.4765        187
  27.6622        177
  27.8480        182
  28.0337        178
  28.2195        147
  28.4053        177
  28.5910        155
  28.7768        163
  28.9625        182
  29.1483        186
  29.3340        156
  29.5198        172
  29.7055        171
  29.8913        172
  30.0771        167
  30.2628        144
  30.4486        234
  30.6343        138
  30.8201        153
  31.0058        141
  31.1916        141
  31.3774        149
  31.5631        131
  31.7489        135
  31.9346        129
  32.1204        137
  32.3061        140
  32.4919        155
  32.6776        140
  32.8634        130
  33.0492        119
  33.2349        141
  33.4207        116
  33.6064        137
  33.7922        109
  33.9779        134
  34.1637        118
  34.3494        135
  34.5352        124
  34.7210        146
  34.9067        135
  35.0925        111
  35.2782        103
  35.4640         91
  35.6497         98
  35.8355        104
  36.0213        115
  36.2070        106
  36.3928         99
  36.5785         84
  36.7643        103
  36.9500         95
  37.1358         80
  37.3215         77
  37.5073         96
  37.6931         84
  37.8788         78
  38.0646         77
  38.2503         85
  38.4361         87
  38.6218         99
  38.8076         77
  38.9933         99
  39.1791         88
  39.3649         87
  39.5506         81
  39.7364         85
  39.9221         89
  40.1079         80
  40.2936         89
  40.4794         79
  40.6652         85
  40.8509         82
  41.0367         89
  41.2224         71
  41.4082         71
  41.5939         85
  41.7797         72
  41.9654         74
  42.1512         69
  42.3370         76
  42.5227         68
  42.7085         73
  42.8942         72
  43.0800         79
  43.2657         77
  43.4515         90
  43.6372        104
  43.8230         84
  44.0088         86
  44.1945         76
  44.3803         67
  44.5660         87
  44.7518         76
  44.9375         67
  45.1233         69
  45.3091         70
  45.4948         65
  45.6806         68
  45.8663         68
  46.0521         62
  46.2378         82
  46.4236         53
  46.6093         61
  46.7951         65
  46.9809         74
  47.1666         54
  47.3524         65
  47.5381         65
  47.7239         71
  47.9096         70
  48.0954         65
  48.2811         73
  48.4669         64
  48.6527         66
  48.8384         70
  49.0242         82
  49.2099         75
  49.3957         64
  49.5814         56
  49.7672         67
  49.9530         63
  50.1387         57
  50.3245         64
  50.5102         59
  50.6960         55
  50.8817         62
  51.0675         60
  51.2532         71
  51.4390         71
  51.6248         64
  51.8105         68
  51.9963         67
  52.1820         44
  52.3678         60
  52.5535         53
  52.7393         53
  52.9250         69
  53.1108         54
  53.2966         57
  53.4823         67
  53.6681         60
  53.8538         61
  54.0396         83
  54.2253         59
  54.4111         62
  54.5969         48
  54.7826         68
  54.9684         56
  55.1541         60
  55.3399         49
  55.5256         46
  55.7114         59
  55.8971         49
  56.0829         64
  56.2687         59
  56.4544         60
  56.6402         43
  56.8259         62
  57.0117         55
  57.1974         51
  57.3832         45
  57.5689         55
  57.7547         73
  57.9405         46
  58.1262         64
  58.3120         67
  58.4977         47
  58.6835         54
  58.8692         48
  59.0550         49
  59.2408         45
  59.4265         50
  59.6123         60
  59.7980         44
  59.9838         49
  60.0024         52

File: ML_20220721_24_SJD_4_LaB6-4min.csv
;,2THETA,
5.0000,277
5.1858,247
5.3715,241
5.5573,245
5.7430,193
5.9288,189
6.1145,192
6.3003,180
6.4860,145
6.6718,183
6.8576,168
7.0433,159
7.2291,154
7.4148,156
7.6006,153
7.7863,170
7.9721,186
8.1579,186
8.3436,183
8.5294,215
8.7151,219
8.9009,230
9.0866,232
9.2724,242
9.4581,224
9.6439,212
9.8297,216
10.0154,255
10.2012,243
10.3869,214
10.5727,241
10.7584,240
10.9442,262
11.1299,221
11.3157,236
11.5015,237
11.6872,206
11.8730,210
12.0587,220
12.2445,216
12.4302,210
12.6160,189
12.8018,209
12.9875,202
13.1733,235
13.3590,213
13.5448,195
13.7305,175
13.9163,185
14.1020,199
14.2878,191
14.4736,180
14.6593,174
14.8451,169
15.0308,159
15.2166,158
15.4023,172
15.5881,168
15.7738,147
15.9596,159
16.1454,178
16.3311,154
16.5169,151
16.7026,156
16.8884,171
17.0741,154
17.2599,158
17.4457,142
17.6314,174
17.8172,187
18.0029,180
18.1887,178
18.3744,179
18.5602,165
18.7459,161
18.9317,172
19.1175,133
19.3032,178
19.4890,157
19.6747,188
19.8605,167
20.0462,153
20.2320,211
20.4177,158
20.6035,173
20.7893,164
20.9750,199
21.1608,250
21.3465,483
21.5323,199
21.7180,186
21.9038,196
22.0896,203
22.2753,219
22.4611,209
22.6468,195
22.8326,197
23.0183,172
23.2041,210
23.3898,225
23.5756,201
23.7614,197
23.9471,233
24.1329,198
24.3186,213
24.5044,191
24.6901,208
24.8759,191
25.0616,180
25.2474,188
25.4332,205
25.6189,178
25.8047,199
25.9904,202
26.1762,185
26.3619,191
26.5477,185
26.7335,184
26.9192,205
27.1050,212
27.2907,221
27.4765,223
27.6622,206
27.8480,173
28.0337,179
28.2195,180
28.4053,195
28.5910,174
28.7768,183
28.9625,165
29.1483,161
29.3340,175
29.5198,151
29.7055,166
29.8913,150
30.0771,158
30.2628,145
30.4486,242
30.6343,134
30.8201,167
31.0058,147
31.1916,155
31.3774,145
31.5631,140
31.7489,138
31.9346,144
32.1204,135
32.3061,149
32.4919,146
32.6776,132
32.8634,129
33.0492,130
33.2349,125
33.4207,127
33.6064,124
33.7922,130
33.9779,121
34.1637,115
34.3494,110
34.5352,117
34.7210,151
34.9067,113
35.0925,91
35.2782,125
35.4640,99
35.6497,80
35.8355,96
36.0213,101
36.2070,104
36.3928,97
36.5785,74
36.7643,102
36.9500,90
37.1358,83
37.3215,88
37.5073,112
37.6931,80
37.8788,87
38.0646,93
38.2503,84
38.4361,76
38.6218,91
38.8076,97
38.9933,92
39.1791,82
39.3649,55
39.5506,80
39.7364,79
39.9221,66
40.1079,80
40.2936,88
40.4794,73
40.6652,69
40.8509,70
41.0367,82
41.2224,78
41.4082,82
41.5939,69
41.7797,83
41.9654,86
42.1512,93
42.3370,74
42.5227,72
42.7085,75
42.8942,64
43.0800,71
43.2657,85
43.4515,84
43.6372,97
43.8230,77
44.0088,65
44.1945,73
44.3803,73
44.5660,91
44.7518,79
44.9375,75
45.1233,83
45.3091,66
45.4948,75
45.6806,80
45.8663,62
46.0521,65
46.2378,64
46.4236,52
46.6093,64
46.7951,60
46.9809,71
47.1666,58
47.3524,62
47.5381,49
47.7239,74
47.9096,62
48.0954,49
48.2811,64
48.4669,65
48.6527,64
48.8384,88
49.0242,79
49.2099,63
49.3957,71
49.5814,68
49.7672,55
49.9530,55
50.1387,67
50.3245,60
50.5102,64
50.6960,60
50.8817,60
51.0675,56
51.2532,69
51.4390,65
51.6248,72
51.8105,69
51.9963,67
52.1820,54
52.3678,45
52.5535,60
52.7393,62
52.9250,58
53.1108,68
53.2966,55
53.4823,56
53.6681,71
53.8538,51
54.0396,52
54.2253,63
54.4111,57
54.5969,47
54.7826,50
54.9684,55
55.1541,53
55.3399,59
55.5256,62
55.7114,61
55.8971,44
56.0829,52
56.2687,72
56.4544,69
56.6402,63
56.8259,64
57.0117,45
57.1974,64
57.3832,56
57.5689,58
57.7547,61
57.9405,63
58.1262,46
58.3120,56
58.4977,65
58.6835,62
58.8692,54
59.0550,61
59.2408,45
59.4265,46
59.6123,57
59.7980,60
59.9838,44
60.0024,58

File: ML_20220721_25_SJD_4_LaB6-4min.csv
;,2THETA,
5.0000,284
5.1858,267
5.3715,274
5.5573,247
5.7430,221
5.9288,194
6.1145,175
6.3003,193
6.4860,188
6.6718,172
6.8576,168
7.0433,155
7.2291,149
7.4148,186
7.6006,144
7.7863,164
7.9721,172
8.1579,173
8.3436,199
8.5294,194
8.7151,225
8.9009,211
9.0866,222
9.2724,202
9.4581,231
9.6439,228
9.8297,235
10.0154,233
10.2012,234
10.3869,240
10.5727,227
10.7584,234
10.9442,248
11.1299,226
11.3157,271
11.5015,247
11.6872,221
11.8730,198
12.0587,246
12.2445,219
12.4302,213
12.6160,215
12.8018,209
12.9875,219
13.1733,203
13.3590,216
13.5448,181
13.7305,170
13.9163,183
14.1020,198
14.2878,165
14.4736,176
14.6593,145
14.8451,155
15.0308,187
15.2166,166
15.4023,160
15.5881,177
15.7738,143
15.9596,155
16.1454,141
16.3311,164
16.5169,155
16.7026,153
16.8884,152
17.0741,145
17.2599,167
17.4457,169
17.6314,167
17.8172,151
18.0029,160
18.1887,156
18.3744,178
18.5602,172
18.7459,164
18.9317,146
19.1175,196
19.3032,167
19.4890,175
19.6747,142
19.8605,189
20.0462,173
20.2320,204
20.4177,188
20.6035,174
20.7893,191
20.9750,205
21.1608,221
21.3465,453
21.5323,211
21.7180,223
21.9038,179
22.0896,198
22.2753,207
22.4611,195
22.6468,196
22.8326,200
23.0183,205
23.2041,193
23.3898,177
23.5756,196
23.7614,186
23.9471,185
24.1329,190
24.3186,213
24.5044,221
24.6901,202
24.8759,186
25.0616,195
25.2474,205
25.4332,208
25.6189,207
25.8047,186
25.9904,207
26.1762,186
26.3619,202
26.5477,179
26.7335,175
26.9192,203
27.1050,186
27.2907,206
27.4765,192
27.6622,170
27.8480,146
28.0337,182
28.2195,196
28.4053,183
28.5910,189
28.7768,167
28.9625,163
29.1483,154
29.3340,190
29.5198,186
29.7055,185
29.8913,168
30.0771,148
30.2628,163
30.4486,253
30.6343,169
30.8201,156
31.0058,138
31.1916,138
31.3774,113
31.5631,142
31.7489,138
31.9346,126
32.1204,147
32.3061,135
32.4919,164
32.6776,115
32.8634,120
33.0492,108
33.2349,131
33.4207,129
33.6064,123
33.7922,112
33.9779,123
34.1637,107
34.3494,99
34.5352,125
34.7210,158
34.9067,132
35.0925,117
35.2782,101
35.4640,94
35.6497,103
35.8355,98
36.0213,111
36.2070,101
36.3928,82
36.5785,101
36.7643,81
36.9500,100
37.1358,110
37.3215,104
37.5073,117
37.6931,99
37.8788,90
38.0646,94
38.2503,91
38.4361,85
38.6218,93
38.8076,81
38.9933,76
39.1791,68
39.3649,80
39.5506,63
39.7364,83
39.9221,82
40.1079,73
40.2936,80
40.4794,82
40.6652,79
40.8509,80
41.0367,91
41.2224,81
41.4082,84
41.5939,79
41.7797,69
41.9654,72
42.1512,68
42.3370,83
42.5227,65
42.7085,61
42.8942,70
43.0800,73
43.2657,94
43.4515,93
43.6372,107
43.8230,73
44.0088,81
44.1945,67
44.3803,87
44.5660,91
44.7518,67
44.9375,60
45.1233,63
45.3091,79
45.4948,62
45.6806,67
45.8663,70
46.0521,68
46.2378,71
46.4236,64
46.6093,65
46.7951,75
46.9809,63
47.1666,57
47.3524,66
47.5381,65
47.7239,59
47.9096,61
48.0954,74
48.2811,59
48.4669,66
48.6527,72
48.8384,59
49.0242,86
49.2099,62
49.3957,60
49.5814,66
49.7672,61
49.9530,73
50.1387,93
50.3245,56
50.5102,64
50.6960,53
50.8817,58
51.0675,50
51.2532,59
51.4390,71
51.6248,56
51.8105,58
51.9963,76
52.1820,56
52.3678,62
52.5535,65
52.7393,65
52.9250,54
53.1108,76
53.2966,55
53.4823,55
53.6681,52
53.8538,58
54.0396,65
54.2253,59
54.4111,60
54.5969,54
54.7826,58
54.9684,60
55.1541,72
55.3399,55
55.5256,60
55.7114,56
55.8971,69
56.0829,49
56.2687,55
56.4544,52
56.6402,54
56.8259,61
57.0117,54
57.1974,51
57.3832,70
57.5689,47
57.7547,53
57.9405,66
58.1262,50
58.3120,62
58.4977,68
58.6835,49
58.8692,50
59.0550,52
59.2408,59
59.4265,57
59.6123,53
59.7980,36
59.9838,56
60.0024,56

File: ML_20220721_26_SJD_4_LaB6-4min.csv
;,2THETA,
5.0000,289
5.1858,240
5.3715,223
5.5573,224
5.7430,238
5.9288,204
6.1145,206
6.3003,169
6.4860,177
6.6718,174
6.8576,152
7.0433,168
7.2291,157
7.4148,149
7.6006,169
7.7863,177
7.9721,204
8.1579,191
8.3436,189
8.5294,181
8.7151,212
8.9009,205
9.0866,226
9.2724,211
9.4581,225
9.6439,226
9.8297,228
10.0154,225
10.2012,240
10.3869,227
10.5727,234
10.7584,260
10.9442,226
11.1299,221
11.3157,230
11.5015,235
11.6872,237
11.8730,228
12.0587,192
12.2445,212
12.4302,205
12.6160,246
12.8018,191
12.9875,230
13.1733,199
13.3590,181
13.5448,182
13.7305,196
13.9163,162
14.1020,155
14.2878,194
14.4736,152
14.6593,154
14.8451,163
15.0308,170
15.2166,166
15.4023,164
15.5881,161
15.7738,160
15.9596,146
16.1454,159
16.3311,173
16.5169,188
16.7026,152
16.8884,131
17.0741,157
17.2599,150
17.4457,166
17.6314,178
17.8172,156
18.0029,165
18.1887,183
18.3744,159
18.5602,154
18.7459,158
18.9317,186
19.1175,158
19.3032,193
19.4890,214
19.6747,167
19.8605,146
20.0462,199
20.2320,176
20.4177,187
20.6035,191
20.7893,187
20.9750,206
21.1608,226
21.3465,542
21.5323,205
21.7180,191
21.9038,229
22.0896,196
22.2753,197
22.4611,203
22.6468,212
22.8326,187
23.0183,190
23.2041,202
23.3898,188
23.5756,184
23.7614,235
23.9471,237
24.1329,204
24.3186,209
24.5044,179
24.6901,178
24.8759,221
25.0616,213
25.2474,185
25.4332,196
25.6189,202
25.8047,201
25.9904,186
26.1762,207
26.3619,188
26.5477,182
26.7335,212
26.9192,188
27.1050,168
27.2907,198
27.4765,200
27.6622,217
27.8480,177
28.0337,180
28.2195,174
28.4053,171
28.5910,188
28.7768,174
28.9625,158
29.1483,178
29.3340,157
29.5198,169
29.7055,164
29.8913,171
30.0771,164
30.2628,164
30.4486,239
30.6343,163
30.8201,166
31.0058,144
31.1916,143
31.3774,125
31.5631,127
31.7489,135
31.9346,134
32.1204,163
32.3061,114
32.4919,154
32.6776,125
32.8634,145
33.0492,119
33.2349,114
33.4207,133
33.6064,114
33.7922,112
33.9779,97
34.1637,112
34.3494,125
34.5352,108
34.7210,152
34.9067,136
35.0925,100
35.2782,94
35.4640,99
35.6497,117
35.8355,109
36.0213,107
36.2070,86
36.3928,95
36.5785,95
36.7643,90
36.9500,95
37.1358,98
37.3215,84
37.5073,109
37.6931,101
37.8788,74
38.0646,91
38.2503,89
38.4361,74
38.6218,97
38.8076,86
38.9933,83
39.1791,93
39.3649,80
39.5506,67
39.7364,75
39.9221,81
40.1079,90
40.2936,83
40.4794,96
40.6652,73
40.8509,88
41.0367,80
41.2224,74
41.4082,70
41.5939,67
41.7797,87
41.9654,61
42.1512,80
42.3370,76
42.5227,70
42.7085,68
42.8942,81
43.0800,72
43.2657,72
43.4515,99
43.6372,92
43.8230,79
44.0088,70
44.1945,74
44.3803,81
44.5660,60
44.7518,90
44.9375,67
45.1233,75
45.3091,58
45.4948,64
45.6806,69
45.8663,61
46.0521,62
46.2378,69
46.4236,45
46.6093,65
46.7951,65
46.9809,64
47.1666,84
47.3524,78
47.5381,78
47.7239,72
47.9096,55
48.0954,73
48.2811,66
48.4669,64
48.6527,55
48.8384,70
49.0242,85
49.2099,64
49.3957,68
49.5814,62
49.7672,59
49.9530,65
50.1387,76
50.3245,69
50.5102,68
50.6960,57
50.8817,67
51.0675,60
51.2532,65
51.4390,68
51.6248,69
51.8105,69
51.9963,70
52.1820,57
52.3678,72
52.5535,65
52.7393,55
52.9250,65
53.1108,43
53.2966,66
53.4823,67
53.6681,60
53.8538,54
54.0396,67
54.2253,64
54.4111,67
54.5969,59
54.7826,45
54.9684,65
55.1541,47
55.3399,49
55.5256,53
55.7114,52
55.8971,56
56.0829,60
56.2687,54
56.4544,56
56.6402,62
56.8259,52
57.0117,70
57.1974,52
57.3832,55
57.5689,50
57.7547,50
57.9405,60
58.1262,62
58.3120,54
58.4977,56
58.6835,50
58.8692,50
59.0550,60
59.2408,55
59.4265,49
59.6123,61
59.7980,48
59.9838,59
60.0024,52