Folder: xrd_clustering/notebooks/data/xrd_data (part 39)

File: ML_20220721_16_SJD_4_LaB6-4min.csv
;,2THETA,
5.0000,278
5.1858,254
5.3715,246
5.5573,249
5.7430,206
5.9288,218
6.1145,200
6.3003,197
6.4860,184
6.6718,202
6.8576,144
7.0433,166
7.2291,175
7.4148,172
7.6006,184
7.7863,188
7.9721,192
8.1579,214
8.3436,205
8.5294,214
8.7151,190
8.9009,213
9.0866,194
9.2724,193
9.4581,209
9.6439,217
9.8297,216
10.0154,272
10.2012,273
10.3869,257
10.5727,257
10.7584,256
10.9442,260
11.1299,252
11.3157,235
11.5015,247
11.6872,240
11.8730,276
12.0587,240
12.2445,243
12.4302,246
12.6160,221
12.8018,233
12.9875,196
13.1733,206
13.3590,201
13.5448,218
13.7305,192
13.9163,187
14.1020,190
14.2878,183
14.4736,174
14.6593,178
14.8451,176
15.0308,186
15.2166,168
15.4023,166
15.5881,154
15.7738,166
15.9596,171
16.1454,173
16.3311,154
16.5169,156
16.7026,152
16.8884,165
17.0741,156
17.2599,168
17.4457,162
17.6314,168
17.8172,162
18.0029,150
18.1887,158
18.3744,204
18.5602,159
18.7459,152
18.9317,189
19.1175,147
19.3032,169
19.4890,187
19.6747,193
19.8605,188
20.0462,177
20.2320,185
20.4177,182
20.6035,191
20.7893,184
20.9750,179
21.1608,217
21.3465,520
21.5323,235
21.7180,203
21.9038,217
22.0896,189
22.2753,200
22.4611,191
22.6468,199
22.8326,195
23.0183,180
23.2041,202
23.3898,201
23.5756,209
23.7614,211
23.9471,199
24.1329,232
24.3186,219
24.5044,229
24.6901,201
24.8759,215
25.0616,189
25.2474,193
25.4332,213
25.6189,209
25.8047,189
25.9904,195
26.1762,180
26.3619,195
26.5477,193
26.7335,180
26.9192,188
27.1050,190
27.2907,205
27.4765,220
27.6622,183
27.8480,175
28.0337,176
28.2195,158
28.4053,184
28.5910,162
28.7768,181
28.9625,176
29.1483,158
29.3340,161
29.5198,162
29.7055,183
29.8913,156
30.0771,152
30.2628,191
30.4486,256
30.6343,151
30.8201,160
31.0058,124
31.1916,119
31.3774,146
31.5631,129
31.7489,159
31.9346,174
32.1204,124
32.3061,113
32.4919,135
32.6776,136
32.8634,128
33.0492,118
33.2349,119
33.4207,107
33.6064,132
33.7922,130
33.9779,104
34.1637,111
34.3494,120
34.5352,112
34.7210,132
34.9067,102
35.0925,92
35.2782,116
35.4640,127
35.6497,109
35.8355,110
36.0213,103
36.2070,112
36.3928,91
36.5785,82
36.7643,83
36.9500,85
37.1358,88
37.3215,106
37.5073,115
37.6931,107
37.8788,82
38.0646,82
38.2503,85
38.4361,85
38.6218,69
38.8076,99
38.9933,66
39.1791,76
39.3649,71
39.5506,81
39.7364,77
39.9221,89
40.1079,72
40.2936,73
40.4794,60
40.6652,80
40.8509,83
41.0367,78
41.2224,71
41.4082,69
41.5939,74
41.7797,73
41.9654,65
42.1512,74
42.3370,87
42.5227,71
42.7085,69
42.8942,70
43.0800,73
43.2657,89
43.4515,94
43.6372,94
43.8230,86
44.0088,64
44.1945,58
44.3803,70
44.5660,68
44.7518,91
44.9375,61
45.1233,82
45.3091,70
45.4948,60
45.6806,76
45.8663,62
46.0521,59
46.2378,72
46.4236,62
46.6093,70
46.7951,64
46.9809,76
47.1666,69
47.3524,61
47.5381,83
47.7239,63
47.9096,64
48.0954,56
48.2811,72
48.4669,60
48.6527,56
48.8384,69
49.0242,81
49.2099,71
49.3957,69
49.5814,63
49.7672,53
49.9530,60
50.1387,54
50.3245,64
50.5102,60
50.6960,69
50.8817,60
51.0675,61
51.2532,53
51.4390,65
51.6248,68
51.8105,66
51.9963,58
52.1820,58
52.3678,58
52.5535,62
52.7393,55
52.9250,59
53.1108,50
53.2966,58
53.4823,53
53.6681,70
53.8538,56
54.0396,58
54.2253,61
54.4111,66
54.5969,73
54.7826,63
54.9684,47
55.1541,59
55.3399,63
55.5256,48
55.7114,63
55.8971,58
56.0829,57
56.2687,62
56.4544,48
56.6402,48
56.8259,52
57.0117,58
57.1974,62
57.3832,57
57.5689,65
57.7547,60
57.9405,57
58.1262,66
58.3120,58
58.4977,58
58.6835,59
58.8692,60
59.0550,47
59.2408,57
59.4265,40
59.6123,50
59.7980,51
59.9838,45
60.0024,52

File: ML_20220721_17_SJD_4_LaB6-4min.uxd
; (content of file Y:\Sam\Apurva-07-20-2022\puck1\ML_20220721_17_SJD_0_LaB6-4min.raw)
_FILEVERSION = 3
_SAMPLE = ML_20220721_17_SJD_0_LaB6-4min
_+SAMPLE =
_SITE = USA
_USER = Administrator
_GONIOMETER_CODE = 20
; Goniometer : D8 theta/2theta, stage : Unknown
_ATTACHMENTS_CODE = 0
_GONIOMETER_RADIUS = 200.5
_FIXED_DIVSLIT = 0.6
_FIXED_SAMPLESLIT = 0
_SOLLER_SLITS = 2
_FIXED_DETSLIT = 9.55
_MONOCHROMATOR = 0
; Incident beam monochromator : None
_SOLLER_SLITS_2 = N
_THIN_FILM = N
_BETA_FILTER = Y
_FIXED_ANTISLIT = 5.89
_ANALYZER_CODE = 0
; Received beam analyzer : None
_DATEMEASURED = "25-Jul-2022 15:08:46"
_WL_UNIT = A
_WL1 = 1.5406
_WL2 = 1.54439
_WL3 = 1.39222
_WLRATIO = 0.5
_ANODE = Cu
_V4_INF_CREATOR = XRDWizard
_V4_INF_CREATOR_VERSION = V2.9.0.22
_V4_INF_WIZARD_VERSION = V2.9.0.22
_V4_INF_WIZARD_ADDINS = V2.9.0.22
_V4_INF_WIZARD_DOCTYPE = XRD
_V4_INF_OSUSER = McQueenLab
_V4_INF_USER = Administrator
_V4_INF_SITE = USA
_V4_INF_SAMPLEID = ML_20220721_17_SJD_0_LaB6-4min

; Data for range 1
_DRIVE = COUPLED
_STEPTIME = 11.28
_STEPSIZE = 0.0185756
_STEPMODE = C
_START = 5
_THETA = 2.5
_2THETA = 5
_KHI = 0
_PHI = 0
_X = 0
_Y = 0
_Z = 0
_DETECTOR = 5
; Detector type : Unknown
_DETECTORSLIT = unkn
_AUX1 = 0
_AUX2 = 0
_AUX3 = 0
_TIMESTARTED = 15
_TEMP_RATE = -1
_TEMP_DELAY = -1
_KV = 40
_MA = 40
_RANGE_WL = 1.5406
_3DPLANE = 0
_V4_ADDITIONALDETECTOR = 257
_V4_PSD2THETA = 3.3673
_V4_PSDCHANNEL1 = 0
_V4_PSDAPERTURE = 12.68
_V4_PSDTYPE = 5
_V4_PSDFIXED = 0
_V4_COUNTERS_MASK = 4096
_V4_DRIVES_MASK = 0
_V4_ENCODERS_MASK = 0
_2THETACOUNTS = 1
; 2THETA  PSD
   5.0000        284
   5.1858        263
   5.3715        226
   5.5573        216
   5.7430        225
   5.9288        199
   6.1145        182
   6.3003        203
   6.4860        196
   6.6718        171
   6.8576        155
   7.0433        156
   7.2291        173
   7.4148        170
   7.6006        178
   7.7863        182
   7.9721        179
   8.1579        197
   8.3436        185
   8.5294        174
   8.7151        194
   8.9009        215
   9.0866        208
   9.2724        226
   9.4581        206
   9.6439        230
   9.8297        218
  10.0154        247
  10.2012        233
  10.3869        232
  10.5727        260
  10.7584        247
  10.9442        236
  11.1299        238
  11.3157        221
  11.5015        230
  11.6872        217
  11.8730        208
  12.0587        212
  12.2445        213
  12.4302        227
  12.6160        184
  12.8018        212
  12.9875        195
  13.1733        199
  13.3590        207
  13.5448        194
  13.7305        169
  13.9163        192
  14.1020        183
  14.2878        205
  14.4736        163
  14.6593        175
  14.8451        176
  15.0308        174
  15.2166        164
  15.4023        148
  15.5881        180
  15.7738        164
  15.9596        164
  16.1454        146
  16.3311        165
  16.5169        148
  16.7026        168
  16.8884        147
  17.0741        151
  17.2599        173
  17.4457        150
  17.6314        182
  17.8172        173
  18.0029        176
  18.1887        153
  18.3744        162
  18.5602        178
  18.7459        189
  18.9317        192
  19.1175        154
  19.3032        173
  19.4890        172
  19.6747        188
  19.8605        163
  20.0462        172
  20.2320        164
  20.4177        183
  20.6035        198
  20.7893        185
  20.9750        210
  21.1608        257
  21.3465        508
  21.5323        205
  21.7180        192
  21.9038        198
  22.0896        201
  22.2753        213
  22.4611        205
  22.6468        190
  22.8326        187
  23.0183        231
  23.2041        215
  23.3898        206
  23.5756        228
  23.7614        195
  23.9471        195
  24.1329        204
  24.3186        252
  24.5044        203
  24.6901        198
  24.8759        213
  25.0616        203
  25.2474        198
  25.4332        188
  25.6189        186
  25.8047        204
  25.9904        204
  26.1762        210
  26.3619        212
  26.5477        167
  26.7335        198
  26.9192        193
  27.1050        180
  27.2907        234
  27.4765        194
  27.6622        180
  27.8480        168
  28.0337        182
  28.2195        170
  28.4053        172
  28.5910        167
  28.7768        164
  28.9625        175
  29.1483        197
  29.3340        180
  29.5198        155
  29.7055        173
  29.8913        148
  30.0771        133
  30.2628        176
  30.4486        269
  30.6343        181
  30.8201        153
  31.0058        145
  31.1916        144
  31.3774        146
  31.5631        131
  31.7489        143
  31.9346        142
  32.1204        140
  32.3061        126
  32.4919        163
  32.6776        143
  32.8634        123
  33.0492        116
  33.2349        101
  33.4207        137
  33.6064        121
  33.7922        123
  33.9779        135
  34.1637        131
  34.3494        113
  34.5352        109
  34.7210        143
  34.9067        144
  35.0925        113
  35.2782        100
  35.4640         94
  35.6497        117
  35.8355        100
  36.0213         98
  36.2070         97
  36.3928        106
  36.5785         93
  36.7643         88
  36.9500         83
  37.1358         99
  37.3215         97
  37.5073        106
  37.6931        102
  37.8788         76
  38.0646         91
  38.2503         76
  38.4361         73
  38.6218         94
  38.8076         82
  38.9933         88
  39.1791         69
  39.3649         73
  39.5506         88
  39.7364         93
  39.9221         71
  40.1079         68
  40.2936         88
  40.4794         74
  40.6652         81
  40.8509         98
  41.0367         92
  41.2224         71
  41.4082         74
  41.5939         63
  41.7797         97
  41.9654         73
  42.1512         96
  42.3370         80
  42.5227         73
  42.7085         90
  42.8942         74
  43.0800         81
  43.2657        109
  43.4515         91
  43.6372         99
  43.8230         75
  44.0088         83
  44.1945         78
  44.3803         87
  44.5660         73
  44.7518         83
  44.9375         72
  45.1233         65
  45.3091         79
  45.4948         72
  45.6806         74
  45.8663         58
  46.0521         65
  46.2378         66
  46.4236         53
  46.6093         72
  46.7951         68
  46.9809         48
  47.1666         60
  47.3524         60
  47.5381         51
  47.7239         79
  47.9096         55
  48.0954         49
  48.2811         57
  48.4669         61
  48.6527         79
  48.8384         67
  49.0242         88
  49.2099         68
  49.3957         62
  49.5814         73
  49.7672         67
  49.9530         63
  50.1387         45
  50.3245         57
  50.5102         52
  50.6960         52
  50.8817         57
  51.0675         65
  51.2532         58
  51.4390         72
  51.6248         62
  51.8105         63
  51.9963         61
  52.1820         59
  52.3678         74
  52.5535         60
  52.7393         50
  52.9250         67
  53.1108         59
  53.2966         60
  53.4823         58
  53.6681         53
  53.8538         63
  54.0396         63
  54.2253         59
  54.4111         53
  54.5969         60
  54.7826         57
  54.9684         55
  55.1541         55
  55.3399         58
  55.5256         56
  55.7114         50
  55.8971         70
  56.0829         51
  56.2687         50
  56.4544         74
  56.6402         55
  56.8259         49
  57.0117         59
  57.1974         56
  57.3832         44
  57.5689         56
  57.7547         51
  57.9405         63
  58.1262         64
  58.3120         61
  58.4977         53
  58.6835         46
  58.8692         61
  59.0550         56
  59.2408         62
  59.4265         72
  59.6123         50
  59.7980         61
  59.9838         68
  60.0024         53

File: ML_20220721_18_SJD_4_LaB6-4min.uxd
; (content of file Y:\Sam\Apurva-07-20-2022\puck1\ML_20220721_18_SJD_0_LaB6-4min.raw)
_FILEVERSION = 3
_SAMPLE = ML_20220721_18_SJD_0_LaB6-4min
_+SAMPLE =
_SITE = USA
_USER = Administrator
_GONIOMETER_CODE = 20
; Goniometer : D8 theta/2theta, stage : Unknown
_ATTACHMENTS_CODE = 0
_GONIOMETER_RADIUS = 200.5
_FIXED_DIVSLIT = 0.6
_FIXED_SAMPLESLIT = 0
_SOLLER_SLITS = 2
_FIXED_DETSLIT = 9.55
_MONOCHROMATOR = 0
; Incident beam monochromator : None
_SOLLER_SLITS_2 = N
_THIN_FILM = N
_BETA_FILTER = Y
_FIXED_ANTISLIT = 5.89
_ANALYZER_CODE = 0
; Received beam analyzer : None
_DATEMEASURED = "25-Jul-2022 15:13:15"
_WL_UNIT = A
_WL1 = 1.5406
_WL2 = 1.54439
_WL3 = 1.39222
_WLRATIO = 0.5
_ANODE = Cu
_V4_INF_CREATOR = XRDWizard
_V4_INF_CREATOR_VERSION = V2.9.0.22
_V4_INF_WIZARD_VERSION = V2.9.0.22
_V4_INF_WIZARD_ADDINS = V2.9.0.22
_V4_INF_WIZARD_DOCTYPE = XRD
_V4_INF_OSUSER = McQueenLab
_V4_INF_USER = Administrator
_V4_INF_SITE = USA
_V4_INF_SAMPLEID = ML_20220721_18_SJD_0_LaB6-4min

; Data for range 1
_DRIVE = COUPLED
_STEPTIME = 11.28
_STEPSIZE = 0.0185756
_STEPMODE = C
_START = 5
_THETA = 2.5
_2THETA = 5
_KHI = 0
_PHI = 0
_X = 0
_Y = 0
_Z = 0
_DETECTOR = 5
; Detector type : Unknown
_DETECTORSLIT = unkn
_AUX1 = 0
_AUX2 = 0
_AUX3 = 0
_TIMESTARTED = 15
_TEMP_RATE = -1
_TEMP_DELAY = -1
_KV = 40
_MA = 40
_RANGE_WL = 1.5406
_3DPLANE = 0
_V4_ADDITIONALDETECTOR = 257
_V4_PSD2THETA = 3.365
_V4_PSDCHANNEL1 = 0
_V4_PSDAPERTURE = 12.68
_V4_PSDTYPE = 5
_V4_PSDFIXED = 0
_V4_COUNTERS_MASK = 4096
_V4_DRIVES_MASK = 0
_V4_ENCODERS_MASK = 0
_2THETACOUNTS = 1
; 2THETA  PSD
   5.0000        288
   5.1858        303
   5.3715        225
   5.5573        244
   5.7430        197
   5.9288        208
   6.1145        205
   6.3003        208
   6.4860        182
   6.6718        190
   6.8576        167
   7.0433        157
   7.2291        175
   7.4148        170
   7.6006        184
   7.7863        177
   7.9721        182
   8.1579        220
   8.3436        209
   8.5294        199
   8.7151        185
   8.9009        204
   9.0866        247
   9.2724        225
   9.4581        234
   9.6439        242
   9.8297        262
  10.0154        234
  10.2012        267
  10.3869        249
  10.5727        255
  10.7584        250
  10.9442        238
  11.1299        205
  11.3157        250
  11.5015        237
  11.6872        243
  11.8730        234
  12.0587        236
  12.2445        254
  12.4302        212
  12.6160        209
  12.8018        199
  12.9875        192
  13.1733        190
  13.3590        195
  13.5448        179
  13.7305        197
  13.9163        203
  14.1020        177
  14.2878        173
  14.4736        166
  14.6593        183
  14.8451        158
  15.0308        171
  15.2166        144
  15.4023        154
  15.5881        166
  15.7738        184
  15.9596        164
  16.1454        182
  16.3311        163
  16.5169        170
  16.7026        143
  16.8884        165
  17.0741        176
  17.2599        171
  17.4457        170
  17.6314        174
  17.8172        174
  18.0029        164
  18.1887        149
  18.3744        176
  18.5602        166
  18.7459        181
  18.9317        174
  19.1175        156
  19.3032        157
  19.4890        187
  19.6747        172
  19.8605        181
  20.0462        207
  20.2320        198
  20.4177        191
  20.6035        179
  20.7893        202
  20.9750        192
  21.1608        226
  21.3465        510
  21.5323        224
  21.7180        214
  21.9038        189
  22.0896        192
  22.2753        195
  22.4611        213
  22.6468        197
  22.8326        187
  23.0183        213
  23.2041        192
  23.3898        226
  23.5756        200
  23.7614        210
  23.9471        200
  24.1329        205
  24.3186        239
  24.5044        243
  24.6901        221
  24.8759        214
  25.0616        222
  25.2474        199
  25.4332        201
  25.6189        216
  25.8047        208
  25.9904        181
  26.1762        179
  26.3619        197
  26.5477        189
  26.7335        201
  26.9192        197
  27.1050        190
  27.2907        219
  27.4765        191
  27.6622        174
  27.8480        180
  28.0337        172
  28.2195        174
  28.4053        171
  28.5910        182
  28.7768        181
  28.9625        138
  29.1483        183
  29.3340        173
  29.5198        167
  29.7055        162
  29.8913        181
  30.0771        152
  30.2628        161
  30.4486        228
  30.6343        149
  30.8201        142
  31.0058        160
  31.1916        141
  31.3774        136
  31.5631        157
  31.7489        130
  31.9346        150
  32.1204        154
  32.3061        122
  32.4919        150
  32.6776        114
  32.8634        121
  33.0492        106
  33.2349        130
  33.4207        139
  33.6064        123
  33.7922        112
  33.9779        129
  34.1637        129
  34.3494        103
  34.5352        133
  34.7210        151
  34.9067        116
  35.0925         95
  35.2782         93
  35.4640        104
  35.6497        103
  35.8355        115
  36.0213         90
  36.2070         93
  36.3928        114
  36.5785         98
  36.7643         89
  36.9500         89
  37.1358         99
  37.3215        105
  37.5073        122
  37.6931         90
  37.8788        101
  38.0646         86
  38.2503         78
  38.4361         65
  38.6218         94
  38.8076         89
  38.9933         75
  39.1791         96
  39.3649         79
  39.5506         74
  39.7364         87
  39.9221         72
  40.1079         84
  40.2936         86
  40.4794         82
  40.6652         61
  40.8509         73
  41.0367         82
  41.2224         79
  41.4082         71
  41.5939         77
  41.7797         84
  41.9654         81
  42.1512         66
  42.3370         91
  42.5227         82
  42.7085         57
  42.8942         75
  43.0800         74
  43.2657         88
  43.4515         94
  43.6372         96
  43.8230         79
  44.0088         67
  44.1945         85
  44.3803         67
  44.5660         82
  44.7518         80
  44.9375         71
  45.1233         76
  45.3091         77
  45.4948         59
  45.6806         61
  45.8663         72
  46.0521         76
  46.2378         65
  46.4236         82
  46.6093         55
  46.7951         65
  46.9809         76
  47.1666         72
  47.3524         64
  47.5381         69
  47.7239         79
  47.9096         64
  48.0954         67
  48.2811         74
  48.4669         61
  48.6527         62
  48.8384         61
  49.0242         82
  49.2099         71
  49.3957         57
  49.5814         50
  49.7672         55
  49.9530         61
  50.1387         80
  50.3245         58
  50.5102         70
  50.6960         57
  50.8817         75
  51.0675         64
  51.2532         73
  51.4390         75
  51.6248         60
  51.8105         75
  51.9963         60
  52.1820         57
  52.3678         65
  52.5535         64
  52.7393         54
  52.9250         70
  53.1108         50
  53.2966         59
  53.4823         72
  53.6681         54
  53.8538         52
  54.0396         67
  54.2253         79
  54.4111         53
  54.5969         46
  54.7826         65
  54.9684         66
  55.1541         59
  55.3399         60
  55.5256         53
  55.7114         60
  55.8971         64
  56.0829         65
  56.2687         76
  56.4544         57
  56.6402         46
  56.8259         65
  57.0117         52
  57.1974         50
  57.3832         55
  57.5689         63
  57.7547         48
  57.9405         53
  58.1262         55
  58.3120         49
  58.4977         46
  58.6835         61
  58.8692         54
  59.0550         50
  59.2408         53
  59.4265         40
  59.6123         52
  59.7980         55
  59.9838         54
  60.0024         58