Folder: xrd_clustering/notebooks/data/xrd_data (part 40)

File: ML_20220721_19_SJD_4_LaB6-4min.uxd
; (content of file Y:\Sam\Apurva-07-20-2022\puck1\ML_20220721_19_SJD_0_LaB6-4min.raw)
_FILEVERSION = 3
_SAMPLE = ML_20220721_19_SJD_0_LaB6-4min
_+SAMPLE =
_SITE = USA
_USER = Administrator
_GONIOMETER_CODE = 20
; Goniometer : D8 theta/2theta, stage : Unknown
_ATTACHMENTS_CODE = 0
_GONIOMETER_RADIUS = 200.5
_FIXED_DIVSLIT = 0.6
_FIXED_SAMPLESLIT = 0
_SOLLER_SLITS = 2
_FIXED_DETSLIT = 9.55
_MONOCHROMATOR = 0
; Incident beam monochromator : None
_SOLLER_SLITS_2 = N
_THIN_FILM = N
_BETA_FILTER = Y
_FIXED_ANTISLIT = 5.89
_ANALYZER_CODE = 0
; Received beam analyzer : None
_DATEMEASURED = "25-Jul-2022 15:17:43"
_WL_UNIT = A
_WL1 = 1.5406
_WL2 = 1.54439
_WL3 = 1.39222
_WLRATIO = 0.5
_ANODE = Cu
_V4_INF_CREATOR = XRDWizard
_V4_INF_CREATOR_VERSION = V2.9.0.22
_V4_INF_WIZARD_VERSION = V2.9.0.22
_V4_INF_WIZARD_ADDINS = V2.9.0.22
_V4_INF_WIZARD_DOCTYPE = XRD
_V4_INF_OSUSER = McQueenLab
_V4_INF_USER = Administrator
_V4_INF_SITE = USA
_V4_INF_SAMPLEID = ML_20220721_19_SJD_0_LaB6-4min

; Data for range 1
_DRIVE = COUPLED
_STEPTIME = 11.28
_STEPSIZE = 0.0185756
_STEPMODE = C
_START = 5
_THETA = 2.5
_2THETA = 5
_KHI = 0
_PHI = 0
_X = 0
_Y = 0
_Z = 0
_DETECTOR = 5
; Detector type : Unknown
_DETECTORSLIT = unkn
_AUX1 = 0
_AUX2 = 0
_AUX3 = 0
_TIMESTARTED = 15
_TEMP_RATE = -1
_TEMP_DELAY = -1
_KV = 40
_MA = 40
_RANGE_WL = 1.5406
_3DPLANE = 0
_V4_ADDITIONALDETECTOR = 257
_V4_PSD2THETA = 3.3674
_V4_PSDCHANNEL1 = 0
_V4_PSDAPERTURE = 12.68
_V4_PSDTYPE = 5
_V4_PSDFIXED = 0
_V4_COUNTERS_MASK = 4096
_V4_DRIVES_MASK = 0
_V4_ENCODERS_MASK = 0
_2THETACOUNTS = 1
; 2THETA  PSD
   5.0000        256
   5.1858        278
   5.3715        243
   5.5573        216
   5.7430        213
   5.9288        220
   6.1145        207
   6.3003        198
   6.4860        197
   6.6718        194
   6.8576        190
   7.0433        165
   7.2291        155
   7.4148        160
   7.6006        170
   7.7863        183
   7.9721        187
   8.1579        203
   8.3436        186
   8.5294        192
   8.7151        207
   8.9009        179
   9.0866        227
   9.2724        220
   9.4581        230
   9.6439        207
   9.8297        241
  10.0154        283
  10.2012        247
  10.3869        235
  10.5727        261
  10.7584        240
  10.9442        203
  11.1299        259
  11.3157        217
  11.5015        258
  11.6872        235
  11.8730        236
  12.0587        241
  12.2445        221
  12.4302        223
  12.6160        226
  12.8018        258
  12.9875        246
  13.1733        219
  13.3590        209
  13.5448        184
  13.7305        212
  13.9163        180
  14.1020        198
  14.2878        183
  14.4736        155
  14.6593        184
  14.8451        147
  15.0308        155
  15.2166        171
  15.4023        160
  15.5881        161
  15.7738        147
  15.9596        178
  16.1454        167
  16.3311        169
  16.5169        151
  16.7026        164
  16.8884        167
  17.0741        158
  17.2599        185
  17.4457        151
  17.6314        184
  17.8172        153
  18.0029        162
  18.1887        171
  18.3744        167
  18.5602        184
  18.7459        182
  18.9317        191
  19.1175        209
  19.3032        163
  19.4890        170
  19.6747        183
  19.8605        163
  20.0462        187
  20.2320        158
  20.4177        167
  20.6035        192
  20.7893        177
  20.9750        197
  21.1608        257
  21.3465        524
  21.5323        201
  21.7180        193
  21.9038        195
  22.0896        157
  22.2753        179
  22.4611        194
  22.6468        191
  22.8326        189
  23.0183        218
  23.2041        196
  23.3898        188
  23.5756        177
  23.7614        222
  23.9471        200
  24.1329        193
  24.3186        239
  24.5044        203
  24.6901        231
  24.8759        188
  25.0616        219
  25.2474        184
  25.4332        189
  25.6189        178
  25.8047        222
  25.9904        213
  26.1762        188
  26.3619        190
  26.5477        198
  26.7335        191
  26.9192        203
  27.1050        210
  27.2907        230
  27.4765        190
  27.6622        180
  27.8480        190
  28.0337        188
  28.2195        177
  28.4053        181
  28.5910        183
  28.7768        167
  28.9625        163
  29.1483        163
  29.3340        147
  29.5198        165
  29.7055        146
  29.8913        182
  30.0771        168
  30.2628        190
  30.4486        256
  30.6343        142
  30.8201        140
  31.0058        144
  31.1916        148
  31.3774        153
  31.5631        137
  31.7489        152
  31.9346        153
  32.1204        128
  32.3061        116
  32.4919        140
  32.6776        115
  32.8634        138
  33.0492        127
  33.2349        137
  33.4207        102
  33.6064        121
  33.7922        120
  33.9779        109
  34.1637        123
  34.3494        121
  34.5352        112
  34.7210        121
  34.9067        120
  35.0925        105
  35.2782         95
  35.4640        113
  35.6497         90
  35.8355         98
  36.0213        102
  36.2070        106
  36.3928         97
  36.5785         98
  36.7643         73
  36.9500         88
  37.1358         82
  37.3215        112
  37.5073        118
  37.6931        101
  37.8788        102
  38.0646         82
  38.2503         95
  38.4361         87
  38.6218         92
  38.8076         90
  38.9933         81
  39.1791         83
  39.3649         97
  39.5506         89
  39.7364         80
  39.9221         75
  40.1079         77
  40.2936         79
  40.4794         82
  40.6652         71
  40.8509         86
  41.0367         79
  41.2224         73
  41.4082         83
  41.5939         77
  41.7797         76
  41.9654         62
  42.1512         75
  42.3370         73
  42.5227         82
  42.7085         65
  42.8942         75
  43.0800         64
  43.2657         91
  43.4515         97
  43.6372        103
  43.8230         91
  44.0088         80
  44.1945         70
  44.3803         72
  44.5660         84
  44.7518         77
  44.9375         78
  45.1233         70
  45.3091         70
  45.4948         68
  45.6806         68
  45.8663         88
  46.0521         63
  46.2378         67
  46.4236         77
  46.6093         77
  46.7951         64
  46.9809         63
  47.1666         54
  47.3524         58
  47.5381         68
  47.7239         75
  47.9096         55
  48.0954         72
  48.2811         63
  48.4669         65
  48.6527         74
  48.8384         57
  49.0242         78
  49.2099         54
  49.3957         49
  49.5814         70
  49.7672         62
  49.9530         58
  50.1387         66
  50.3245         68
  50.5102         53
  50.6960         62
  50.8817         58
  51.0675         69
  51.2532         42
  51.4390         67
  51.6248         59
  51.8105         67
  51.9963         67
  52.1820         61
  52.3678         69
  52.5535         65
  52.7393         61
  52.9250         66
  53.1108         66
  53.2966         49
  53.4823         50
  53.6681         59
  53.8538         75
  54.0396         79
  54.2253         70
  54.4111         62
  54.5969         71
  54.7826         64
  54.9684         46
  55.1541         48
  55.3399         52
  55.5256         57
  55.7114         54
  55.8971         62
  56.0829         43
  56.2687         62
  56.4544         61
  56.6402         54
  56.8259         65
  57.0117         60
  57.1974         60
  57.3832         59
  57.5689         54
  57.7547         60
  57.9405         64
  58.1262         54
  58.3120         54
  58.4977         62
  58.6835         59
  58.8692         44
  59.0550         64
  59.2408         59
  59.4265         71
  59.6123         62
  59.7980         43
  59.9838         48
  60.0024         61

File: ML_20220721_20_SJD_4_LaB6-4min.csv
;,2THETA,
5.0000,289
5.1858,248
5.3715,233
5.5573,212
5.7430,237
5.9288,188
6.1145,193
6.3003,197
6.4860,183
6.6718,195
6.8576,165
7.0433,181
7.2291,141
7.4148,164
7.6006,148
7.7863,174
7.9721,185
8.1579,179
8.3436,169
8.5294,188
8.7151,199
8.9009,205
9.0866,197
9.2724,227
9.4581,248
9.6439,239
9.8297,224
10.0154,237
10.2012,236
10.3869,217
10.5727,242
10.7584,231
10.9442,217
11.1299,220
11.3157,241
11.5015,250
11.6872,230
11.8730,252
12.0587,213
12.2445,265
12.4302,212
12.6160,223
12.8018,194
12.9875,212
13.1733,211
13.3590,205
13.5448,187
13.7305,191
13.9163,183
14.1020,174
14.2878,195
14.4736,182
14.6593,186
14.8451,159
15.0308,153
15.2166,163
15.4023,179
15.5881,170
15.7738,175
15.9596,186
16.1454,177
16.3311,141
16.5169,155
16.7026,157
16.8884,164
17.0741,143
17.2599,194
17.4457,147
17.6314,149
17.8172,156
18.0029,154
18.1887,159
18.3744,170
18.5602,172
18.7459,180
18.9317,168
19.1175,175
19.3032,173
19.4890,157
19.6747,183
19.8605,191
20.0462,198
20.2320,211
20.4177,180
20.6035,211
20.7893,176
20.9750,196
21.1608,238
21.3465,516
21.5323,201
21.7180,167
21.9038,194
22.0896,209
22.2753,167
22.4611,170
22.6468,192
22.8326,175
23.0183,197
23.2041,207
23.3898,200
23.5756,185
23.7614,195
23.9471,215
24.1329,195
24.3186,250
24.5044,221
24.6901,209
24.8759,176
25.0616,205
25.2474,188
25.4332,193
25.6189,206
25.8047,197
25.9904,187
26.1762,228
26.3619,194
26.5477,178
26.7335,181
26.9192,176
27.1050,208
27.2907,223
27.4765,170
27.6622,187
27.8480,187
28.0337,163
28.2195,158
28.4053,163
28.5910,180
28.7768,181
28.9625,150
29.1483,161
29.3340,148
29.5198,168
29.7055,173
29.8913,150
30.0771,168
30.2628,164
30.4486,255
30.6343,154
30.8201,158
31.0058,125
31.1916,153
31.3774,143
31.5631,141
31.7489,136
31.9346,130
32.1204,150
32.3061,155
32.4919,168
32.6776,131
32.8634,117
33.0492,122
33.2349,116
33.4207,119
33.6064,108
33.7922,124
33.9779,124
34.1637,104
34.3494,111
34.5352,123
34.7210,149
34.9067,133
35.0925,104
35.2782,112
35.4640,128
35.6497,104
35.8355,109
36.0213,91
36.2070,98
36.3928,94
36.5785,93
36.7643,110
36.9500,94
37.1358,76
37.3215,96
37.5073,126
37.6931,98
37.8788,93
38.0646,88
38.2503,86
38.4361,100
38.6218,77
38.8076,99
38.9933,107
39.1791,83
39.3649,89
39.5506,86
39.7364,93
39.9221,82
40.1079,94
40.2936,68
40.4794,84
40.6652,83
40.8509,73
41.0367,82
41.2224,52
41.4082,83
41.5939,79
41.7797,73
41.9654,89
42.1512,76
42.3370,75
42.5227,75
42.7085,90
42.8942,79
43.0800,67
43.2657,86
43.4515,85
43.6372,114
43.8230,66
44.0088,72
44.1945,77
44.3803,77
44.5660,80
44.7518,82
44.9375,73
45.1233,62
45.3091,78
45.4948,70
45.6806,67
45.8663,72
46.0521,63
46.2378,54
46.4236,64
46.6093,75
46.7951,75
46.9809,71
47.1666,71
47.3524,71
47.5381,64
47.7239,67
47.9096,47
48.0954,60
48.2811,64
48.4669,73
48.6527,53
48.8384,72
49.0242,78
49.2099,75
49.3957,46
49.5814,65
49.7672,70
49.9530,65
50.1387,45
50.3245,50
50.5102,59
50.6960,52
50.8817,62
51.0675,69
51.2532,59
51.4390,88
51.6248,67
51.8105,55
51.9963,68
52.1820,52
52.3678,68
52.5535,57
52.7393,53
52.9250,53
53.1108,34
53.2966,63
53.4823,68
53.6681,51
53.8538,55
54.0396,61
54.2253,56
54.4111,55
54.5969,62
54.7826,54
54.9684,57
55.1541,46
55.3399,52
55.5256,54
55.7114,54
55.8971,57
56.0829,55
56.2687,70
56.4544,52
56.6402,50
56.8259,53
57.0117,42
57.1974,50
57.3832,61
57.5689,59
57.7547,61
57.9405,51
58.1262,61
58.3120,60
58.4977,53
58.6835,52
58.8692,61
59.0550,65
59.2408,47
59.4265,51
59.6123,61
59.7980,48
59.9838,51
60.0024,49

File: ML_20220721_21_SJD_4_LaB6-4min.uxd
; (content of file Y:\Sam\Apurva-07-20-2022\puck1\ML_20220721_21_SJD_0_LaB6-4min.raw)
_FILEVERSION = 3
_SAMPLE = ML_20220721_21_SJD_0_LaB6-4min
_+SAMPLE =
_SITE = USA
_USER = Administrator
_GONIOMETER_CODE = 20
; Goniometer : D8 theta/2theta, stage : Unknown
_ATTACHMENTS_CODE = 0
_GONIOMETER_RADIUS = 200.5
_FIXED_DIVSLIT = 0.6
_FIXED_SAMPLESLIT = 0
_SOLLER_SLITS = 2
_FIXED_DETSLIT = 9.55
_MONOCHROMATOR = 0
; Incident beam monochromator : None
_SOLLER_SLITS_2 = N
_THIN_FILM = N
_BETA_FILTER = Y
_FIXED_ANTISLIT = 5.89
_ANALYZER_CODE = 0
; Received beam analyzer : None
_DATEMEASURED = "25-Jul-2022 15:26:41"
_WL_UNIT = A
_WL1 = 1.5406
_WL2 = 1.54439
_WL3 = 1.39222
_WLRATIO = 0.5
_ANODE = Cu
_V4_INF_CREATOR = XRDWizard
_V4_INF_CREATOR_VERSION = V2.9.0.22
_V4_INF_WIZARD_VERSION = V2.9.0.22
_V4_INF_WIZARD_ADDINS = V2.9.0.22
_V4_INF_WIZARD_DOCTYPE = XRD
_V4_INF_OSUSER = McQueenLab
_V4_INF_USER = Administrator
_V4_INF_SITE = USA
_V4_INF_SAMPLEID = ML_20220721_21_SJD_0_LaB6-4min

; Data for range 1
_DRIVE = COUPLED
_STEPTIME = 11.28
_STEPSIZE = 0.0185756
_STEPMODE = C
_START = 5
_THETA = 2.5
_2THETA = 5
_KHI = 0
_PHI = 0
_X = 0
_Y = 0
_Z = 0
_DETECTOR = 5
; Detector type : Unknown
_DETECTORSLIT = unkn
_AUX1 = 0
_AUX2 = 0
_AUX3 = 0
_TIMESTARTED = 15
_TEMP_RATE = -1
_TEMP_DELAY = -1
_KV = 40
_MA = 40
_RANGE_WL = 1.5406
_3DPLANE = 0
_V4_ADDITIONALDETECTOR = 257
_V4_PSD2THETA = 3.3675
_V4_PSDCHANNEL1 = 0
_V4_PSDAPERTURE = 12.68
_V4_PSDTYPE = 5
_V4_PSDFIXED = 0
_V4_COUNTERS_MASK = 4096
_V4_DRIVES_MASK = 0
_V4_ENCODERS_MASK = 0
_2THETACOUNTS = 1
; 2THETA  PSD
   5.0000        267
   5.1858        263
   5.3715        258
   5.5573        223
   5.7430        225
   5.9288        169
   6.1145        212
   6.3003        179
   6.4860        196
   6.6718        161
   6.8576        154
   7.0433        166
   7.2291        161
   7.4148        156
   7.6006        170
   7.7863        180
   7.9721        187
   8.1579        177
   8.3436        217
   8.5294        223
   8.7151        203
   8.9009        196
   9.0866        226
   9.2724        245
   9.4581        222
   9.6439        221
   9.8297        223
  10.0154        230
  10.2012        225
  10.3869        257
  10.5727        249
  10.7584        248
  10.9442        224
  11.1299        278
  11.3157        243
  11.5015        239
  11.6872        220
  11.8730        261
  12.0587        244
  12.2445        238
  12.4302        254
  12.6160        223
  12.8018        216
  12.9875        201
  13.1733        223
  13.3590        200
  13.5448        194
  13.7305        186
  13.9163        202
  14.1020        180
  14.2878        190
  14.4736        183
  14.6593        160
  14.8451        199
  15.0308        163
  15.2166        144
  15.4023        174
  15.5881        161
  15.7738        163
  15.9596        161
  16.1454        162
  16.3311        172
  16.5169        152
  16.7026        149
  16.8884        199
  17.0741        162
  17.2599        168
  17.4457        163
  17.6314        159
  17.8172        155
  18.0029        148
  18.1887        146
  18.3744        163
  18.5602        177
  18.7459        171
  18.9317        169
  19.1175        173
  19.3032        162
  19.4890        190
  19.6747        181
  19.8605        186
  20.0462        158
  20.2320        187
  20.4177        183
  20.6035        183
  20.7893        170
  20.9750        185
  21.1608        241
  21.3465        529
  21.5323        189
  21.7180        195
  21.9038        190
  22.0896        209
  22.2753        190
  22.4611        197
  22.6468        202
  22.8326        193
  23.0183        204
  23.2041        196
  23.3898        200
  23.5756        217
  23.7614        214
  23.9471        188
  24.1329        224
  24.3186        216
  24.5044        189
  24.6901        242
  24.8759        198
  25.0616        209
  25.2474        186
  25.4332        180
  25.6189        189
  25.8047        200
  25.9904        173
  26.1762        179
  26.3619        205
  26.5477        170
  26.7335        182
  26.9192        203
  27.1050        192
  27.2907        234
  27.4765        187
  27.6622        170
  27.8480        158
  28.0337        184
  28.2195        177
  28.4053        154
  28.5910        177
  28.7768        184
  28.9625        148
  29.1483        181
  29.3340        168
  29.5198        151
  29.7055        133
  29.8913        167
  30.0771        155
  30.2628        165
  30.4486        236
  30.6343        151
  30.8201        132
  31.0058        133
  31.1916        159
  31.3774        151
  31.5631        137
  31.7489        148
  31.9346        137
  32.1204        144
  32.3061        133
  32.4919        170
  32.6776        154
  32.8634        122
  33.0492        133
  33.2349        136
  33.4207        122
  33.6064        122
  33.7922        108
  33.9779        110
  34.1637        119
  34.3494        111
  34.5352        110
  34.7210        146
  34.9067        128
  35.0925        109
  35.2782        125
  35.4640        106
  35.6497        101
  35.8355         91
  36.0213         99
  36.2070         85
  36.3928         99
  36.5785        105
  36.7643         97
  36.9500         95
  37.1358        113
  37.3215         99
  37.5073        113
  37.6931         79
  37.8788         85
  38.0646         81
  38.2503         95
  38.4361         86
  38.6218         88
  38.8076         89
  38.9933         79
  39.1791         73
  39.3649         74
  39.5506         78
  39.7364         82
  39.9221         71
  40.1079         73
  40.2936         78
  40.4794         91
  40.6652         82
  40.8509         64
  41.0367         83
  41.2224         91
  41.4082         78
  41.5939         84
  41.7797         72
  41.9654         91
  42.1512         94
  42.3370         70
  42.5227         73
  42.7085         68
  42.8942         78
  43.0800         81
  43.2657        100
  43.4515         97
  43.6372         94
  43.8230         75
  44.0088         79
  44.1945         53
  44.3803         70
  44.5660         79
  44.7518         72
  44.9375         71
  45.1233         78
  45.3091         74
  45.4948         73
  45.6806         72
  45.8663         56
  46.0521         69
  46.2378         78
  46.4236         58
  46.6093         69
  46.7951         60
  46.9809         74
  47.1666         74
  47.3524         58
  47.5381         71
  47.7239         68
  47.9096         67
  48.0954         61
  48.2811         61
  48.4669         54
  48.6527         66
  48.8384         72
  49.0242         85
  49.2099         66
  49.3957         57
  49.5814         55
  49.7672         60
  49.9530         74
  50.1387         56
  50.3245         69
  50.5102         66
  50.6960         59
  50.8817         52
  51.0675         51
  51.2532         67
  51.4390         78
  51.6248         69
  51.8105         57
  51.9963         60
  52.1820         49
  52.3678         55
  52.5535         55
  52.7393         64
  52.9250         54
  53.1108         61
  53.2966         64
  53.4823         70
  53.6681         47
  53.8538         64
  54.0396         60
  54.2253         53
  54.4111         61
  54.5969         57
  54.7826         69
  54.9684         59
  55.1541         61
  55.3399         53
  55.5256         59
  55.7114         61
  55.8971         72
  56.0829         62
  56.2687         55
  56.4544         64
  56.6402         56
  56.8259         54
  57.0117         56
  57.1974         54
  57.3832         59
  57.5689         60
  57.7547         61
  57.9405         56
  58.1262         66
  58.3120         64
  58.4977         65
  58.6835         59
  58.8692         65
  59.0550         70
  59.2408         43
  59.4265         46
  59.6123         43
  59.7980         48
  59.9838         53
  60.0024         57

File: ML_20220721_22_SJD_4_LaB6-4min.csv
;,2THETA,
5.0000,278
5.1858,272
5.3715,235
5.5573,244
5.7430,197
5.9288,196
6.1145,203
6.3003,213
6.4860,188
6.6718,173
6.8576,175
7.0433,155
7.2291,165
7.4148,180
7.6006,181
7.7863,182
7.9721,179
8.1579,180
8.3436,197
8.5294,188
8.7151,203
8.9009,210
9.0866,212
9.2724,236
9.4581,243
9.6439,171
9.8297,236
10.0154,228
10.2012,238
10.3869,220
10.5727,236
10.7584,228
10.9442,229
11.1299,256
11.3157,256
11.5015,211
11.6872,236
11.8730,191
12.0587,232
12.2445,226
12.4302,231
12.6160,200
12.8018,213
12.9875,193
13.1733,209
13.3590,203
13.5448,182
13.7305,214
13.9163,188
14.1020,184
14.2878,162
14.4736,212
14.6593,197
14.8451,162
15.0308,170
15.2166,156
15.4023,158
15.5881,165
15.7738,154
15.9596,164
16.1454,169
16.3311,167
16.5169,159
16.7026,148
16.8884,150
17.0741,168
17.2599,153
17.4457,167
17.6314,168
17.8172,171
18.0029,156
18.1887,173
18.3744,172
18.5602,159
18.7459,168
18.9317,161
19.1175,158
19.3032,170
19.4890,167
19.6747,181
19.8605,165
20.0462,189
20.2320,165
20.4177,190
20.6035,175
20.7893,180
20.9750,181
21.1608,219
21.3465,499
21.5323,215
21.7180,175
21.9038,198
22.0896,198
22.2753,194
22.4611,187
22.6468,194
22.8326,213
23.0183,209
23.2041,186
23.3898,205
23.5756,197
23.7614,200
23.9471,212
24.1329,219
24.3186,230
24.5044,219
24.6901,216
24.8759,224
25.0616,197
25.2474,207
25.4332,222
25.6189,198
25.8047,206
25.9904,194
26.1762,177
26.3619,189
26.5477,195
26.7335,216
26.9192,190
27.1050,174
27.2907,210
27.4765,190
27.6622,185
27.8480,185
28.0337,186
28.2195,162
28.4053,147
28.5910,176
28.7768,175
28.9625,172
29.1483,169
29.3340,141
29.5198,166
29.7055,155
29.8913,182
30.0771,144
30.2628,152
30.4486,250
30.6343,135
30.8201,140
31.0058,141
31.1916,137
31.3774,126
31.5631,152
31.7489,138
31.9346,162
32.1204,127
32.3061,120
32.4919,160
32.6776,124
32.8634,139
33.0492,152
33.2349,132
33.4207,118
33.6064,128
33.7922,127
33.9779,115
34.1637,117
34.3494,108
34.5352,123
34.7210,146
34.9067,139
35.0925,91
35.2782,104
35.4640,99
35.6497,101
35.8355,91
36.0213,102
36.2070,84
36.3928,95
36.5785,79
36.7643,95
36.9500,82
37.1358,78
37.3215,77
37.5073,114
37.6931,81
37.8788,82
38.0646,85
38.2503,90
38.4361,100
38.6218,79
38.8076,78
38.9933,90
39.1791,79
39.3649,89
39.5506,90
39.7364,63
39.9221,100
40.1079,89
40.2936,60
40.4794,79
40.6652,78
40.8509,69
41.0367,78
41.2224,93
41.4082,88
41.5939,82
41.7797,70
41.9654,89
42.1512,74
42.3370,93
42.5227,74
42.7085,81
42.8942,70
43.0800,82
43.2657,97
43.4515,88
43.6372,104
43.8230,72
44.0088,68
44.1945,58
44.3803,92
44.5660,75
44.7518,70
44.9375,61
45.1233,81
45.3091,74
45.4948,75
45.6806,56
45.8663,60
46.0521,80
46.2378,54
46.4236,70
46.6093,69
46.7951,77
46.9809,78
47.1666,69
47.3524,63
47.5381,62
47.7239,59
47.9096,61
48.0954,60
48.2811,76
48.4669,54
48.6527,54
48.8384,75
49.0242,61
49.2099,69
49.3957,57
49.5814,49
49.7672,50
49.9530,68
50.1387,66
50.3245,65
50.5102,65
50.6960,55
50.8817,62
51.0675,46
51.2532,81
51.4390,63
51.6248,75
51.8105,67
51.9963,71
52.1820,62
52.3678,49
52.5535,56
52.7393,46
52.9250,69
53.1108,56
53.2966,55
53.4823,65
53.6681,63
53.8538,70
54.0396,66
54.2253,59
54.4111,55
54.5969,64
54.7826,72
54.9684,65
55.1541,54
55.3399,46
55.5256,46
55.7114,62
55.8971,61
56.0829,58
56.2687,62
56.4544,52
56.6402,48
56.8259,64
57.0117,53
57.1974,54
57.3832,49
57.5689,73
57.7547,41
57.9405,57
58.1262,52
58.3120,60
58.4977,49
58.6835,62
58.8692,70
59.0550,49
59.2408,57
59.4265,66
59.6123,42
59.7980,59
59.9838,49
60.0024,45