Folder: xrd_clustering/notebooks/data/xrd_data (part 38)

File: ML_20220721_13_SJD_4_LaB6-4min.uxd
; (content of file Y:\Sam\Apurva-07-20-2022\puck1\ML_20220721_13_SJD_0_LaB6-4min.raw)
_FILEVERSION = 3
_SAMPLE = ML_20220721_13_SJD_0_LaB6-4min
_+SAMPLE =
_SITE = USA
_USER = Administrator
_GONIOMETER_CODE = 20
; Goniometer : D8 theta/2theta, stage : Unknown
_ATTACHMENTS_CODE = 0
_GONIOMETER_RADIUS = 200.5
_FIXED_DIVSLIT = 0.6
_FIXED_SAMPLESLIT = 0
_SOLLER_SLITS = 2
_FIXED_DETSLIT = 9.55
_MONOCHROMATOR = 0
; Incident beam monochromator : None
_SOLLER_SLITS_2 = N
_THIN_FILM = N
_BETA_FILTER = Y
_FIXED_ANTISLIT = 5.89
_ANALYZER_CODE = 0
; Received beam analyzer : None
_DATEMEASURED = "25-Jul-2022 14:50:52"
_WL_UNIT = A
_WL1 = 1.5406
_WL2 = 1.54439
_WL3 = 1.39222
_WLRATIO = 0.5
_ANODE = Cu
_V4_INF_CREATOR = XRDWizard
_V4_INF_CREATOR_VERSION = V2.9.0.22
_V4_INF_WIZARD_VERSION = V2.9.0.22
_V4_INF_WIZARD_ADDINS = V2.9.0.22
_V4_INF_WIZARD_DOCTYPE = XRD
_V4_INF_OSUSER = McQueenLab
_V4_INF_USER = Administrator
_V4_INF_SITE = USA
_V4_INF_SAMPLEID = ML_20220721_13_SJD_0_LaB6-4min

; Data for range 1
_DRIVE = COUPLED
_STEPTIME = 11.28
_STEPSIZE = 0.0185756
_STEPMODE = C
_START = 5
_THETA = 2.5
_2THETA = 5
_KHI = 0
_PHI = 0
_X = 0
_Y = 0
_Z = 0
_DETECTOR = 5
; Detector type : Unknown
_DETECTORSLIT = unkn
_AUX1 = 0
_AUX2 = 0
_AUX3 = 0
_TIMESTARTED = 15
_TEMP_RATE = -1
_TEMP_DELAY = -1
_KV = 40
_MA = 40
_RANGE_WL = 1.5406
_3DPLANE = 0
_V4_ADDITIONALDETECTOR = 257
_V4_PSD2THETA = 3.3889
_V4_PSDCHANNEL1 = 0
_V4_PSDAPERTURE = 12.68
_V4_PSDTYPE = 5
_V4_PSDFIXED = 0
_V4_COUNTERS_MASK = 4096
_V4_DRIVES_MASK = 0
_V4_ENCODERS_MASK = 0
_2THETACOUNTS = 1
; 2THETA  PSD
   5.0000        288
   5.1858        258
   5.3715        257
   5.5573        223
   5.7430        212
   5.9288        215
   6.1145        184
   6.3003        182
   6.4860        177
   6.6718        204
   6.8576        158
   7.0433        152
   7.2291        149
   7.4148        148
   7.6006        178
   7.7863        183
   7.9721        184
   8.1579        177
   8.3436        200
   8.5294        193
   8.7151        214
   8.9009        208
   9.0866        210
   9.2724        243
   9.4581        236
   9.6439        230
   9.8297        251
  10.0154        271
  10.2012        249
  10.3869        255
  10.5727        266
  10.7584        247
  10.9442        222
  11.1299        235
  11.3157        233
  11.5015        257
  11.6872        253
  11.8730        255
  12.0587        238
  12.2445        261
  12.4302        211
  12.6160        217
  12.8018        201
  12.9875        214
  13.1733        209
  13.3590        201
  13.5448        192
  13.7305        172
  13.9163        188
  14.1020        178
  14.2878        180
  14.4736        183
  14.6593        180
  14.8451        185
  15.0308        180
  15.2166        149
  15.4023        162
  15.5881        150
  15.7738        171
  15.9596        187
  16.1454        166
  16.3311        190
  16.5169        154
  16.7026        171
  16.8884        161
  17.0741        149
  17.2599        142
  17.4457        151
  17.6314        148
  17.8172        166
  18.0029        176
  18.1887        140
  18.3744        186
  18.5602        184
  18.7459        175
  18.9317        150
  19.1175        173
  19.3032        176
  19.4890        193
  19.6747        188
  19.8605        160
  20.0462        190
  20.2320        182
  20.4177        178
  20.6035        178
  20.7893        212
  20.9750        197
  21.1608        259
  21.3465        494
  21.5323        193
  21.7180        202
  21.9038        200
  22.0896        182
  22.2753        197
  22.4611        197
  22.6468        213
  22.8326        195
  23.0183        213
  23.2041        195
  23.3898        207
  23.5756        227
  23.7614        212
  23.9471        219
  24.1329        196
  24.3186        251
  24.5044        218
  24.6901        189
  24.8759        198
  25.0616        201
  25.2474        187
  25.4332        197
  25.6189        209
  25.8047        190
  25.9904        174
  26.1762        196
  26.3619        187
  26.5477        181
  26.7335        181
  26.9192        192
  27.1050        187
  27.2907        199
  27.4765        190
  27.6622        173
  27.8480        183
  28.0337        181
  28.2195        202
  28.4053        179
  28.5910        178
  28.7768        160
  28.9625        183
  29.1483        195
  29.3340        157
  29.5198        143
  29.7055        185
  29.8913        184
  30.0771        179
  30.2628        187
  30.4486        231
  30.6343        159
  30.8201        162
  31.0058        146
  31.1916        144
  31.3774        144
  31.5631        139
  31.7489        133
  31.9346        127
  32.1204        134
  32.3061        139
  32.4919        139
  32.6776        134
  32.8634        123
  33.0492        138
  33.2349        146
  33.4207        114
  33.6064        122
  33.7922        146
  33.9779        124
  34.1637        100
  34.3494        117
  34.5352        113
  34.7210        138
  34.9067        142
  35.0925         98
  35.2782        117
  35.4640        102
  35.6497         95
  35.8355         93
  36.0213        107
  36.2070         85
  36.3928         98
  36.5785         89
  36.7643         96
  36.9500         93
  37.1358         96
  37.3215         99
  37.5073        112
  37.6931         84
  37.8788         98
  38.0646         78
  38.2503         84
  38.4361         80
  38.6218         94
  38.8076         96
  38.9933         89
  39.1791         83
  39.3649         89
  39.5506         78
  39.7364         75
  39.9221         67
  40.1079         77
  40.2936         84
  40.4794         84
  40.6652         73
  40.8509         74
  41.0367         59
  41.2224         87
  41.4082         75
  41.5939         74
  41.7797         80
  41.9654         83
  42.1512         76
  42.3370         70
  42.5227         77
  42.7085         75
  42.8942         89
  43.0800         81
  43.2657         97
  43.4515         99
  43.6372         97
  43.8230         82
  44.0088         77
  44.1945         71
  44.3803         84
  44.5660         81
  44.7518         52
  44.9375         91
  45.1233         74
  45.3091         63
  45.4948         58
  45.6806         59
  45.8663         65
  46.0521         71
  46.2378         56
  46.4236         74
  46.6093         61
  46.7951         52
  46.9809         68
  47.1666         78
  47.3524         55
  47.5381         66
  47.7239         51
  47.9096         66
  48.0954         57
  48.2811         68
  48.4669         74
  48.6527         53
  48.8384         64
  49.0242         88
  49.2099         70
  49.3957         68
  49.5814         63
  49.7672         60
  49.9530         74
  50.1387         71
  50.3245         65
  50.5102         65
  50.6960         64
  50.8817         49
  51.0675         65
  51.2532         54
  51.4390         73
  51.6248         63
  51.8105         66
  51.9963         65
  52.1820         52
  52.3678         65
  52.5535         57
  52.7393         67
  52.9250         56
  53.1108         59
  53.2966         52
  53.4823         55
  53.6681         55
  53.8538         57
  54.0396         74
  54.2253         62
  54.4111         48
  54.5969         55
  54.7826         50
  54.9684         50
  55.1541         58
  55.3399         69
  55.5256         50
  55.7114         68
  55.8971         52
  56.0829         49
  56.2687         70
  56.4544         65
  56.6402         66
  56.8259         72
  57.0117         63
  57.1974         73
  57.3832         59
  57.5689         47
  57.7547         44
  57.9405         59
  58.1262         60
  58.3120         49
  58.4977         62
  58.6835         52
  58.8692         55
  59.0550         60
  59.2408         62
  59.4265         54
  59.6123         58
  59.7980         53
  59.9838         48
  60.0024         54

File: ML_20220721_14_SJD_4_LaB6-4min.uxd
; (content of file Y:\Sam\Apurva-07-20-2022\puck1\ML_20220721_14_SJD_0_LaB6-4min.raw)
_FILEVERSION = 3
_SAMPLE = ML_20220721_14_SJD_0_LaB6-4min
_+SAMPLE =
_SITE = USA
_USER = Administrator
_GONIOMETER_CODE = 20
; Goniometer : D8 theta/2theta, stage : Unknown
_ATTACHMENTS_CODE = 0
_GONIOMETER_RADIUS = 200.5
_FIXED_DIVSLIT = 0.6
_FIXED_SAMPLESLIT = 0
_SOLLER_SLITS = 2
_FIXED_DETSLIT = 9.55
_MONOCHROMATOR = 0
; Incident beam monochromator : None
_SOLLER_SLITS_2 = N
_THIN_FILM = N
_BETA_FILTER = Y
_FIXED_ANTISLIT = 5.89
_ANALYZER_CODE = 0
; Received beam analyzer : None
_DATEMEASURED = "25-Jul-2022 14:55:21"
_WL_UNIT = A
_WL1 = 1.5406
_WL2 = 1.54439
_WL3 = 1.39222
_WLRATIO = 0.5
_ANODE = Cu
_V4_INF_CREATOR = XRDWizard
_V4_INF_CREATOR_VERSION = V2.9.0.22
_V4_INF_WIZARD_VERSION = V2.9.0.22
_V4_INF_WIZARD_ADDINS = V2.9.0.22
_V4_INF_WIZARD_DOCTYPE = XRD
_V4_INF_OSUSER = McQueenLab
_V4_INF_USER = Administrator
_V4_INF_SITE = USA
_V4_INF_SAMPLEID = ML_20220721_14_SJD_0_LaB6-4min

; Data for range 1
_DRIVE = COUPLED
_STEPTIME = 11.28
_STEPSIZE = 0.0185756
_STEPMODE = C
_START = 5
_THETA = 2.5
_2THETA = 5
_KHI = 0
_PHI = 0
_X = 0
_Y = 0
_Z = 0
_DETECTOR = 5
; Detector type : Unknown
_DETECTORSLIT = unkn
_AUX1 = 0
_AUX2 = 0
_AUX3 = 0
_TIMESTARTED = 15
_TEMP_RATE = -1
_TEMP_DELAY = -1
_KV = 40
_MA = 40
_RANGE_WL = 1.5406
_3DPLANE = 0
_V4_ADDITIONALDETECTOR = 257
_V4_PSD2THETA = 3.3888
_V4_PSDCHANNEL1 = 0
_V4_PSDAPERTURE = 12.68
_V4_PSDTYPE = 5
_V4_PSDFIXED = 0
_V4_COUNTERS_MASK = 4096
_V4_DRIVES_MASK = 0
_V4_ENCODERS_MASK = 0
_2THETACOUNTS = 1
; 2THETA  PSD
   5.0000        285
   5.1858        240
   5.3715        229
   5.5573        192
   5.7430        225
   5.9288        235
   6.1145        168
   6.3003        197
   6.4860        206
   6.6718        146
   6.8576        175
   7.0433        182
   7.2291        165
   7.4148        169
   7.6006        184
   7.7863        172
   7.9721        194
   8.1579        190
   8.3436        186
   8.5294        213
   8.7151        198
   8.9009        239
   9.0866        227
   9.2724        228
   9.4581        219
   9.6439        219
   9.8297        262
  10.0154        230
  10.2012        239
  10.3869        224
  10.5727        237
  10.7584        279
  10.9442        224
  11.1299        222
  11.3157        257
  11.5015        250
  11.6872        233
  11.8730        241
  12.0587        239
  12.2445        236
  12.4302        197
  12.6160        210
  12.8018        222
  12.9875        224
  13.1733        192
  13.3590        213
  13.5448        194
  13.7305        195
  13.9163        207
  14.1020        168
  14.2878        197
  14.4736        180
  14.6593        162
  14.8451        163
  15.0308        164
  15.2166        150
  15.4023        154
  15.5881        144
  15.7738        181
  15.9596        166
  16.1454        160
  16.3311        150
  16.5169        143
  16.7026        150
  16.8884        159
  17.0741        133
  17.2599        172
  17.4457        155
  17.6314        159
  17.8172        167
  18.0029        184
  18.1887        197
  18.3744        169
  18.5602        180
  18.7459        168
  18.9317        159
  19.1175        156
  19.3032        172
  19.4890        182
  19.6747        166
  19.8605        156
  20.0462        171
  20.2320        219
  20.4177        197
  20.6035        167
  20.7893        174
  20.9750        171
  21.1608        238
  21.3465        510
  21.5323        206
  21.7180        189
  21.9038        198
  22.0896        186
  22.2753        199
  22.4611        215
  22.6468        175
  22.8326        212
  23.0183        211
  23.2041        183
  23.3898        208
  23.5756        209
  23.7614        186
  23.9471        198
  24.1329        209
  24.3186        223
  24.5044        219
  24.6901        208
  24.8759        206
  25.0616        222
  25.2474        173
  25.4332        214
  25.6189        175
  25.8047        199
  25.9904        199
  26.1762        193
  26.3619        172
  26.5477        180
  26.7335        196
  26.9192        178
  27.1050        196
  27.2907        200
  27.4765        184
  27.6622        177
  27.8480        183
  28.0337        160
  28.2195        188
  28.4053        160
  28.5910        164
  28.7768        167
  28.9625        176
  29.1483        192
  29.3340        138
  29.5198        166
  29.7055        166
  29.8913        159
  30.0771        131
  30.2628        150
  30.4486        235
  30.6343        161
  30.8201        155
  31.0058        143
  31.1916        142
  31.3774        162
  31.5631        116
  31.7489        129
  31.9346        135
  32.1204        142
  32.3061        162
  32.4919        159
  32.6776        125
  32.8634        135
  33.0492        134
  33.2349        146
  33.4207        124
  33.6064        123
  33.7922        125
  33.9779        121
  34.1637        113
  34.3494         99
  34.5352        112
  34.7210        148
  34.9067        126
  35.0925        132
  35.2782        112
  35.4640        103
  35.6497        109
  35.8355        118
  36.0213         99
  36.2070        101
  36.3928        117
  36.5785         81
  36.7643         82
  36.9500         98
  37.1358         99
  37.3215        105
  37.5073        111
  37.6931         80
  37.8788        111
  38.0646         73
  38.2503         79
  38.4361         82
  38.6218        100
  38.8076         81
  38.9933         80
  39.1791         94
  39.3649         81
  39.5506         95
  39.7364         68
  39.9221         63
  40.1079         77
  40.2936         81
  40.4794         73
  40.6652         61
  40.8509         68
  41.0367         75
  41.2224         78
  41.4082         91
  41.5939         69
  41.7797         70
  41.9654         76
  42.1512         78
  42.3370         82
  42.5227         70
  42.7085         62
  42.8942         76
  43.0800         88
  43.2657         93
  43.4515         71
  43.6372        115
  43.8230         67
  44.0088         67
  44.1945         69
  44.3803         83
  44.5660         85
  44.7518         86
  44.9375         67
  45.1233         79
  45.3091         82
  45.4948         55
  45.6806         72
  45.8663         60
  46.0521         68
  46.2378         69
  46.4236         63
  46.6093         56
  46.7951         73
  46.9809         85
  47.1666         63
  47.3524         68
  47.5381         60
  47.7239         64
  47.9096         59
  48.0954         59
  48.2811         68
  48.4669         61
  48.6527         67
  48.8384         63
  49.0242         71
  49.2099         72
  49.3957         62
  49.5814         59
  49.7672         52
  49.9530         68
  50.1387         63
  50.3245         66
  50.5102         63
  50.6960         68
  50.8817         57
  51.0675         64
  51.2532         66
  51.4390         53
  51.6248         59
  51.8105         75
  51.9963         58
  52.1820         47
  52.3678         54
  52.5535         53
  52.7393         59
  52.9250         61
  53.1108         61
  53.2966         65
  53.4823         43
  53.6681         69
  53.8538         66
  54.0396         55
  54.2253         60
  54.4111         62
  54.5969         57
  54.7826         52
  54.9684         57
  55.1541         61
  55.3399         46
  55.5256         48
  55.7114         48
  55.8971         71
  56.0829         54
  56.2687         66
  56.4544         56
  56.6402         58
  56.8259         49
  57.0117         58
  57.1974         56
  57.3832         59
  57.5689         56
  57.7547         67
  57.9405         57
  58.1262         57
  58.3120         65
  58.4977         60
  58.6835         56
  58.8692         53
  59.0550         50
  59.2408         45
  59.4265         62
  59.6123         54
  59.7980         60
  59.9838         60
  60.0024         59

File: ML_20220721_15_SJD_4_LaB6-4min.uxd
; (content of file Y:\Sam\Apurva-07-20-2022\puck1\ML_20220721_15_SJD_0_LaB6-4min.raw)
_FILEVERSION = 3
_SAMPLE = ML_20220721_15_SJD_0_LaB6-4min
_+SAMPLE =
_SITE = USA
_USER = Administrator
_GONIOMETER_CODE = 20
; Goniometer : D8 theta/2theta, stage : Unknown
_ATTACHMENTS_CODE = 0
_GONIOMETER_RADIUS = 200.5
_FIXED_DIVSLIT = 0.6
_FIXED_SAMPLESLIT = 0
_SOLLER_SLITS = 2
_FIXED_DETSLIT = 9.55
_MONOCHROMATOR = 0
; Incident beam monochromator : None
_SOLLER_SLITS_2 = N
_THIN_FILM = N
_BETA_FILTER = Y
_FIXED_ANTISLIT = 5.89
_ANALYZER_CODE = 0
; Received beam analyzer : None
_DATEMEASURED = "25-Jul-2022 14:59:49"
_WL_UNIT = A
_WL1 = 1.5406
_WL2 = 1.54439
_WL3 = 1.39222
_WLRATIO = 0.5
_ANODE = Cu
_V4_INF_CREATOR = XRDWizard
_V4_INF_CREATOR_VERSION = V2.9.0.22
_V4_INF_WIZARD_VERSION = V2.9.0.22
_V4_INF_WIZARD_ADDINS = V2.9.0.22
_V4_INF_WIZARD_DOCTYPE = XRD
_V4_INF_OSUSER = McQueenLab
_V4_INF_USER = Administrator
_V4_INF_SITE = USA
_V4_INF_SAMPLEID = ML_20220721_15_SJD_0_LaB6-4min

; Data for range 1
_DRIVE = COUPLED
_STEPTIME = 11.28
_STEPSIZE = 0.0185756
_STEPMODE = C
_START = 5
_THETA = 2.5
_2THETA = 5
_KHI = 0
_PHI = 0
_X = 0
_Y = 0
_Z = 0
_DETECTOR = 5
; Detector type : Unknown
_DETECTORSLIT = unkn
_AUX1 = 0
_AUX2 = 0
_AUX3 = 0
_TIMESTARTED = 15
_TEMP_RATE = -1
_TEMP_DELAY = -1
_KV = 40
_MA = 40
_RANGE_WL = 1.5406
_3DPLANE = 0
_V4_ADDITIONALDETECTOR = 257
_V4_PSD2THETA = 3.3877
_V4_PSDCHANNEL1 = 0
_V4_PSDAPERTURE = 12.68
_V4_PSDTYPE = 5
_V4_PSDFIXED = 0
_V4_COUNTERS_MASK = 4096
_V4_DRIVES_MASK = 0
_V4_ENCODERS_MASK = 0
_2THETACOUNTS = 1
; 2THETA  PSD
   5.0000        298
   5.1858        255
   5.3715        217
   5.5573        234
   5.7430        212
   5.9288        198
   6.1145        185
   6.3003        209
   6.4860        160
   6.6718        178
   6.8576        173
   7.0433        175
   7.2291        193
   7.4148        184
   7.6006        187
   7.7863        200
   7.9721        200
   8.1579        202
   8.3436        187
   8.5294        184
   8.7151        222
   8.9009        196
   9.0866        192
   9.2724        227
   9.4581        223
   9.6439        254
   9.8297        252
  10.0154        274
  10.2012        249
  10.3869        241
  10.5727        254
  10.7584        238
  10.9442        219
  11.1299        226
  11.3157        210
  11.5015        266
  11.6872        240
  11.8730        231
  12.0587        241
  12.2445        243
  12.4302        216
  12.6160        231
  12.8018        206
  12.9875        235
  13.1733        201
  13.3590        228
  13.5448        190
  13.7305        173
  13.9163        171
  14.1020        170
  14.2878        158
  14.4736        171
  14.6593        182
  14.8451        169
  15.0308        161
  15.2166        179
  15.4023        181
  15.5881        141
  15.7738        158
  15.9596        167
  16.1454        158
  16.3311        170
  16.5169        176
  16.7026        164
  16.8884        166
  17.0741        164
  17.2599        140
  17.4457        176
  17.6314        174
  17.8172        161
  18.0029        176
  18.1887        170
  18.3744        145
  18.5602        168
  18.7459        161
  18.9317        183
  19.1175        167
  19.3032        176
  19.4890        151
  19.6747        179
  19.8605        171
  20.0462        197
  20.2320        172
  20.4177        184
  20.6035        175
  20.7893        175
  20.9750        176
  21.1608        216
  21.3465        520
  21.5323        186
  21.7180        210
  21.9038        192
  22.0896        177
  22.2753        206
  22.4611        192
  22.6468        197
  22.8326        200
  23.0183        183
  23.2041        212
  23.3898        213
  23.5756        216
  23.7614        203
  23.9471        190
  24.1329        206
  24.3186        225
  24.5044        236
  24.6901        198
  24.8759        203
  25.0616        215
  25.2474        191
  25.4332        191
  25.6189        204
  25.8047        205
  25.9904        179
  26.1762        188
  26.3619        188
  26.5477        168
  26.7335        211
  26.9192        177
  27.1050        180
  27.2907        193
  27.4765        206
  27.6622        194
  27.8480        151
  28.0337        175
  28.2195        167
  28.4053        174
  28.5910        161
  28.7768        173
  28.9625        168
  29.1483        182
  29.3340        176
  29.5198        163
  29.7055        191
  29.8913        153
  30.0771        150
  30.2628        150
  30.4486        233
  30.6343        176
  30.8201        159
  31.0058        154
  31.1916        147
  31.3774        137
  31.5631        157
  31.7489        117
  31.9346        120
  32.1204        118
  32.3061        117
  32.4919        161
  32.6776        134
  32.8634        120
  33.0492        121
  33.2349        134
  33.4207        128
  33.6064        115
  33.7922        109
  33.9779        107
  34.1637        125
  34.3494        116
  34.5352        110
  34.7210        136
  34.9067        132
  35.0925        111
  35.2782        103
  35.4640        102
  35.6497        111
  35.8355        111
  36.0213        110
  36.2070        106
  36.3928         89
  36.5785         82
  36.7643         91
  36.9500        100
  37.1358        104
  37.3215         93
  37.5073        123
  37.6931         75
  37.8788         81
  38.0646         85
  38.2503         87
  38.4361         73
  38.6218         73
  38.8076         83
  38.9933        106
  39.1791         77
  39.3649         71
  39.5506         71
  39.7364         73
  39.9221         74
  40.1079         76
  40.2936         76
  40.4794         91
  40.6652         75
  40.8509         72
  41.0367         84
  41.2224         95
  41.4082         78
  41.5939         69
  41.7797         71
  41.9654         84
  42.1512         76
  42.3370         79
  42.5227         72
  42.7085         88
  42.8942         74
  43.0800         82
  43.2657         94
  43.4515         89
  43.6372        103
  43.8230         78
  44.0088         62
  44.1945         71
  44.3803         78
  44.5660         81
  44.7518         78
  44.9375         80
  45.1233         80
  45.3091         78
  45.4948         74
  45.6806         71
  45.8663         73
  46.0521         70
  46.2378         60
  46.4236         74
  46.6093         70
  46.7951         66
  46.9809         55
  47.1666         62
  47.3524         62
  47.5381         64
  47.7239         54
  47.9096         75
  48.0954         64
  48.2811         69
  48.4669         50
  48.6527         81
  48.8384         76
  49.0242         86
  49.2099         87
  49.3957         63
  49.5814         55
  49.7672         68
  49.9530         59
  50.1387         56
  50.3245         55
  50.5102         56
  50.6960         60
  50.8817         64
  51.0675         46
  51.2532         77
  51.4390         59
  51.6248         65
  51.8105         72
  51.9963         65
  52.1820         70
  52.3678         66
  52.5535         74
  52.7393         58
  52.9250         62
  53.1108         73
  53.2966         64
  53.4823         57
  53.6681         38
  53.8538         47
  54.0396         69
  54.2253         54
  54.4111         66
  54.5969         53
  54.7826         56
  54.9684         61
  55.1541         63
  55.3399         49
  55.5256         68
  55.7114         61
  55.8971         64
  56.0829         65
  56.2687         67
  56.4544         58
  56.6402         65
  56.8259         54
  57.0117         46
  57.1974         61
  57.3832         66
  57.5689         58
  57.7547         44
  57.9405         53
  58.1262         43
  58.3120         52
  58.4977         45
  58.6835         66
  58.8692         56
  59.0550         69
  59.2408         60
  59.4265         64
  59.6123         46
  59.7980         49
  59.9838         56
  60.0024         55