Folder: xrd_clustering/notebooks/data/xrd_data (part 10)

File: ML_20220718_40_SJD_4_LaB6-2min.uxd
; (content of file Y:\Sam\Apurva-07-20-2022\puck4\ML_20220718_40_SJD_4_LaB6-2min.raw)
_FILEVERSION = 3
_SAMPLE = ML_20220718_40_SJD_4_LaB6-2min
_+SAMPLE =
_SITE = USA
_USER = Administrator
_GONIOMETER_CODE = 20
; Goniometer : D8 theta/2theta, stage : Unknown
_ATTACHMENTS_CODE = 0
_GONIOMETER_RADIUS = 200.5
_FIXED_DIVSLIT = 0.6
_FIXED_SAMPLESLIT = 0
_SOLLER_SLITS = 2
_FIXED_DETSLIT = 9.55
_MONOCHROMATOR = 0
; Incident beam monochromator : None
_SOLLER_SLITS_2 = N
_THIN_FILM = N
_BETA_FILTER = Y
_FIXED_ANTISLIT = 5.89
_ANALYZER_CODE = 0
; Received beam analyzer : None
_DATEMEASURED = "26-Jul-2022 12:03:44"
_WL_UNIT = A
_WL1 = 1.5406
_WL2 = 1.54439
_WL3 = 1.39222
_WLRATIO = 0.5
_ANODE = Cu
_V4_INF_CREATOR = XRDWizard
_V4_INF_CREATOR_VERSION = V2.9.0.22
_V4_INF_WIZARD_VERSION = V2.9.0.22
_V4_INF_WIZARD_ADDINS = V2.9.0.22
_V4_INF_WIZARD_DOCTYPE = XRD
_V4_INF_OSUSER = McQueenLab
_V4_INF_USER = Administrator
_V4_INF_SITE = USA
_V4_INF_SAMPLEID = ML_20220718_40_SJD_4_LaB6-2min

; Data for range 1
_DRIVE = COUPLED
_STEPTIME = 5.64
_STEPSIZE = 0.0185756
_STEPMODE = C
_START = 5
_THETA = 2.5
_2THETA = 5
_KHI = 0
_PHI = 0
_X = 0
_Y = 0
_Z = 0
_DETECTOR = 5
; Detector type : Unknown
_DETECTORSLIT = unkn
_AUX1 = 0
_AUX2 = 0
_AUX3 = 0
_TIMESTARTED = 16
_TEMP_RATE = -1
_TEMP_DELAY = -1
_KV = 40
_MA = 40
_RANGE_WL = 1.5406
_3DPLANE = 0
_V4_ADDITIONALDETECTOR = 257
_V4_PSD2THETA = 3.3729
_V4_PSDCHANNEL1 = 0
_V4_PSDAPERTURE = 12.68
_V4_PSDTYPE = 5
_V4_PSDFIXED = 0
_V4_COUNTERS_MASK = 4096
_V4_DRIVES_MASK = 0
_V4_ENCODERS_MASK = 0
_2THETACOUNTS = 1
; 2THETA  PSD
   5.0000        133
   5.1858        125
   5.3715        123
   5.5573        137
   5.7430         94
   5.9288         84
   6.1145         92
   6.3003         96
   6.4860         80
   6.6718         94
   6.8576         82
   7.0433         85
   7.2291         86
   7.4148         86
   7.6006         98
   7.7863        115
   7.9721         88
   8.1579         91
   8.3436         93
   8.5294         99
   8.7151        101
   8.9009        108
   9.0866         91
   9.2724        123
   9.4581        105
   9.6439        104
   9.8297        119
  10.0154        129
  10.2012        123
  10.3869        124
  10.5727        124
  10.7584        129
  10.9442        130
  11.1299        119
  11.3157        112
  11.5015        137
  11.6872        110
  11.8730        123
  12.0587        133
  12.2445        106
  12.4302        110
  12.6160        110
  12.8018        118
  12.9875        105
  13.1733        111
  13.3590        103
  13.5448         96
  13.7305        101
  13.9163         98
  14.1020        103
  14.2878        109
  14.4736         98
  14.6593         84
  14.8451         90
  15.0308         96
  15.2166         96
  15.4023         88
  15.5881        100
  15.7738         98
  15.9596         86
  16.1454         79
  16.3311         89
  16.5169         86
  16.7026         99
  16.8884         66
  17.0741         85
  17.2599         82
  17.4457         72
  17.6314         73
  17.8172         89
  18.0029         88
  18.1887         87
  18.3744         74
  18.5602         89
  18.7459         77
  18.9317         84
  19.1175         92
  19.3032        102
  19.4890         91
  19.6747         96
  19.8605         88
  20.0462        104
  20.2320         94
  20.4177        104
  20.6035        101
  20.7893         91
  20.9750         84
  21.1608         99
  21.3465        204
  21.5323        102
  21.7180         85
  21.9038        104
  22.0896        111
  22.2753        102
  22.4611         88
  22.6468         90
  22.8326         81
  23.0183        102
  23.2041        111
  23.3898        100
  23.5756         97
  23.7614        101
  23.9471        102
  24.1329        108
  24.3186        122
  24.5044        110
  24.6901         96
  24.8759         89
  25.0616        114
  25.2474        110
  25.4332         94
  25.6189        101
  25.8047         91
  25.9904         94
  26.1762         96
  26.3619         83
  26.5477         89
  26.7335        106
  26.9192         76
  27.1050         97
  27.2907        123
  27.4765         90
  27.6622         89
  27.8480        102
  28.0337         88
  28.2195         74
  28.4053         79
  28.5910         97
  28.7768         78
  28.9625         82
  29.1483         82
  29.3340         87
  29.5198         84
  29.7055         90
  29.8913         74
  30.0771         83
  30.2628        100
  30.4486        108
  30.6343         90
  30.8201         76
  31.0058         65
  31.1916         77
  31.3774         69
  31.5631         85
  31.7489         63
  31.9346         68
  32.1204         66
  32.3061         75
  32.4919        102
  32.6776         67
  32.8634         64
  33.0492         80
  33.2349         61
  33.4207         73
  33.6064         60
  33.7922         75
  33.9779         61
  34.1637         59
  34.3494         69
  34.5352         48
  34.7210         76
  34.9067         64
  35.0925         50
  35.2782         51
  35.4640         58
  35.6497         49
  35.8355         49
  36.0213         43
  36.2070         53
  36.3928         58
  36.5785         43
  36.7643         47
  36.9500         35
  37.1358         54
  37.3215         57
  37.5073         55
  37.6931         43
  37.8788         42
  38.0646         43
  38.2503         38
  38.4361         33
  38.6218         49
  38.8076         47
  38.9933         31
  39.1791         39
  39.3649         30
  39.5506         38
  39.7364         40
  39.9221         33
  40.1079         42
  40.2936         39
  40.4794         37
  40.6652         42
  40.8509         43
  41.0367         35
  41.2224         28
  41.4082         38
  41.5939         43
  41.7797         44
  41.9654         39
  42.1512         43
  42.3370         36
  42.5227         32
  42.7085         36
  42.8942         37
  43.0800         26
  43.2657         38
  43.4515         41
  43.6372         51
  43.8230         33
  44.0088         44
  44.1945         39
  44.3803         35
  44.5660         39
  44.7518         30
  44.9375         37
  45.1233         29
  45.3091         49
  45.4948         32
  45.6806         34
  45.8663         33
  46.0521         26
  46.2378         31
  46.4236         25
  46.6093         27
  46.7951         37
  46.9809         30
  47.1666         31
  47.3524         38
  47.5381         30
  47.7239         34
  47.9096         29
  48.0954         34
  48.2811         26
  48.4669         43
  48.6527         36
  48.8384         36
  49.0242         34
  49.2099         30
  49.3957         36
  49.5814         28
  49.7672         31
  49.9530         22
  50.1387         30
  50.3245         35
  50.5102         22
  50.6960         25
  50.8817         38
  51.0675         27
  51.2532         41
  51.4390         35
  51.6248         35
  51.8105         38
  51.9963         29
  52.1820         26
  52.3678         34
  52.5535         25
  52.7393         33
  52.9250         40
  53.1108         28
  53.2966         29
  53.4823         30
  53.6681         35
  53.8538         22
  54.0396         44
  54.2253         30
  54.4111         33
  54.5969         27
  54.7826         32
  54.9684         20
  55.1541         27
  55.3399         27
  55.5256         29
  55.7114         27
  55.8971         31
  56.0829         36
  56.2687         17
  56.4544         27
  56.6402         25
  56.8259         33
  57.0117         36
  57.1974         32
  57.3832         32
  57.5689         24
  57.7547         33
  57.9405         27
  58.1262         32
  58.3120         16
  58.4977         31
  58.6835         36
  58.8692         22
  59.0550         28
  59.2408         27
  59.4265         33
  59.6123         36
  59.7980         24
  59.9838         30
  60.0024         27

File: ML_20220718_40_SJD_4_LaB6-4min.uxd
; (content of file Y:\Sam\Apurva-07-20-2022\puck4\ML_20220718_40_SJD_4_LaB6-4min.raw)
_FILEVERSION = 3
_SAMPLE = ML_20220718_40_SJD_4_LaB6-4min
_+SAMPLE =
_SITE = USA
_USER = Administrator
_GONIOMETER_CODE = 20
; Goniometer : D8 theta/2theta, stage : Unknown
_ATTACHMENTS_CODE = 0
_GONIOMETER_RADIUS = 200.5
_FIXED_DIVSLIT = 0.6
_FIXED_SAMPLESLIT = 0
_SOLLER_SLITS = 2
_FIXED_DETSLIT = 9.55
_MONOCHROMATOR = 0
; Incident beam monochromator : None
_SOLLER_SLITS_2 = N
_THIN_FILM = N
_BETA_FILTER = Y
_FIXED_ANTISLIT = 5.89
_ANALYZER_CODE = 0
; Received beam analyzer : None
_DATEMEASURED = "26-Jul-2022 13:16:01"
_WL_UNIT = A
_WL1 = 1.5406
_WL2 = 1.54439
_WL3 = 1.39222
_WLRATIO = 0.5
_ANODE = Cu
_V4_INF_CREATOR = XRDWizard
_V4_INF_CREATOR_VERSION = V2.9.0.22
_V4_INF_WIZARD_VERSION = V2.9.0.22
_V4_INF_WIZARD_ADDINS = V2.9.0.22
_V4_INF_WIZARD_DOCTYPE = XRD
_V4_INF_OSUSER = McQueenLab
_V4_INF_USER = Administrator
_V4_INF_SITE = USA
_V4_INF_SAMPLEID = ML_20220718_40_SJD_4_LaB6-4min

; Data for range 1
_DRIVE = COUPLED
_STEPTIME = 11.28
_STEPSIZE = 0.0185756
_STEPMODE = C
_START = 5
_THETA = 2.5
_2THETA = 5
_KHI = 0
_PHI = 0
_X = 0
_Y = 0
_Z = 0
_DETECTOR = 5
; Detector type : Unknown
_DETECTORSLIT = unkn
_AUX1 = 0
_AUX2 = 0
_AUX3 = 0
_TIMESTARTED = 16
_TEMP_RATE = -1
_TEMP_DELAY = -1
_KV = 40
_MA = 40
_RANGE_WL = 1.5406
_3DPLANE = 0
_V4_ADDITIONALDETECTOR = 257
_V4_PSD2THETA = 3.3661
_V4_PSDCHANNEL1 = 0
_V4_PSDAPERTURE = 12.68
_V4_PSDTYPE = 5
_V4_PSDFIXED = 0
_V4_COUNTERS_MASK = 4096
_V4_DRIVES_MASK = 0
_V4_ENCODERS_MASK = 0
_2THETACOUNTS = 1
; 2THETA  PSD
   5.0000        265
   5.1858        239
   5.3715        238
   5.5573        218
   5.7430        234
   5.9288        223
   6.1145        211
   6.3003        171
   6.4860        170
   6.6718        166
   6.8576        162
   7.0433        176
   7.2291        165
   7.4148        163
   7.6006        164
   7.7863        182
   7.9721        214
   8.1579        198
   8.3436        204
   8.5294        196
   8.7151        187
   8.9009        203
   9.0866        208
   9.2724        203
   9.4581        222
   9.6439        249
   9.8297        245
  10.0154        248
  10.2012        224
  10.3869        248
  10.5727        216
  10.7584        234
  10.9442        260
  11.1299        251
  11.3157        238
  11.5015        224
  11.6872        245
  11.8730        213
  12.0587        231
  12.2445        197
  12.4302        220
  12.6160        250
  12.8018        207
  12.9875        203
  13.1733        197
  13.3590        217
  13.5448        202
  13.7305        198
  13.9163        205
  14.1020        186
  14.2878        197
  14.4736        171
  14.6593        160
  14.8451        165
  15.0308        179
  15.2166        162
  15.4023        175
  15.5881        161
  15.7738        168
  15.9596        184
  16.1454        157
  16.3311        147
  16.5169        154
  16.7026        156
  16.8884        189
  17.0741        178
  17.2599        147
  17.4457        183
  17.6314        148
  17.8172        167
  18.0029        179
  18.1887        174
  18.3744        175
  18.5602        159
  18.7459        169
  18.9317        159
  19.1175        185
  19.3032        185
  19.4890        129
  19.6747        183
  19.8605        180
  20.0462        180
  20.2320        178
  20.4177        159
  20.6035        198
  20.7893        191
  20.9750        214
  21.1608        236
  21.3465        486
  21.5323        201
  21.7180        195
  21.9038        183
  22.0896        196
  22.2753        213
  22.4611        193
  22.6468        205
  22.8326        226
  23.0183        183
  23.2041        195
  23.3898        223
  23.5756        175
  23.7614        194
  23.9471        206
  24.1329        192
  24.3186        257
  24.5044        215
  24.6901        187
  24.8759        211
  25.0616        178
  25.2474        202
  25.4332        221
  25.6189        193
  25.8047        174
  25.9904        197
  26.1762        211
  26.3619        208
  26.5477        175
  26.7335        167
  26.9192        199
  27.1050        171
  27.2907        208
  27.4765        162
  27.6622        192
  27.8480        183
  28.0337        155
  28.2195        178
  28.4053        175
  28.5910        173
  28.7768        174
  28.9625        172
  29.1483        216
  29.3340        156
  29.5198        166
  29.7055        179
  29.8913        164
  30.0771        162
  30.2628        179
  30.4486        249
  30.6343        162
  30.8201        176
  31.0058        161
  31.1916        159
  31.3774        181
  31.5631        125
  31.7489        118
  31.9346        123
  32.1204        130
  32.3061        132
  32.4919        130
  32.6776        116
  32.8634        123
  33.0492        118
  33.2349        124
  33.4207        125
  33.6064        121
  33.7922        118
  33.9779        110
  34.1637        102
  34.3494        121
  34.5352        123
  34.7210        136
  34.9067        114
  35.0925        112
  35.2782        107
  35.4640         92
  35.6497         89
  35.8355         93
  36.0213         97
  36.2070         92
  36.3928         95
  36.5785         94
  36.7643         89
  36.9500        106
  37.1358        107
  37.3215        106
  37.5073        132
  37.6931        116
  37.8788         82
  38.0646         75
  38.2503         72
  38.4361         87
  38.6218        105
  38.8076         87
  38.9933         74
  39.1791         76
  39.3649         89
  39.5506         91
  39.7364         72
  39.9221        106
  40.1079         77
  40.2936         68
  40.4794         86
  40.6652         72
  40.8509         92
  41.0367         86
  41.2224         75
  41.4082         70
  41.5939         77
  41.7797         73
  41.9654         84
  42.1512         73
  42.3370         68
  42.5227         72
  42.7085         74
  42.8942         75
  43.0800         75
  43.2657         72
  43.4515         89
  43.6372        133
  43.8230         76
  44.0088         67
  44.1945         68
  44.3803         68
  44.5660         85
  44.7518         78
  44.9375         72
  45.1233         72
  45.3091         73
  45.4948         74
  45.6806         71
  45.8663         60
  46.0521         79
  46.2378         66
  46.4236         81
  46.6093         55
  46.7951         53
  46.9809         67
  47.1666         67
  47.3524         74
  47.5381         51
  47.7239         59
  47.9096         47
  48.0954         61
  48.2811         64
  48.4669         66
  48.6527         70
  48.8384         71
  49.0242         61
  49.2099         68
  49.3957         49
  49.5814         67
  49.7672         56
  49.9530         81
  50.1387         61
  50.3245         73
  50.5102         49
  50.6960         61
  50.8817         48
  51.0675         50
  51.2532         60
  51.4390         64
  51.6248         68
  51.8105         63
  51.9963         76
  52.1820         59
  52.3678         64
  52.5535         51
  52.7393         68
  52.9250         49
  53.1108         63
  53.2966         58
  53.4823         54
  53.6681         55
  53.8538         68
  54.0396         54
  54.2253         61
  54.4111         57
  54.5969         66
  54.7826         51
  54.9684         69
  55.1541         47
  55.3399         45
  55.5256         47
  55.7114         53
  55.8971         41
  56.0829         67
  56.2687         85
  56.4544         55
  56.6402         61
  56.8259         46
  57.0117         50
  57.1974         63
  57.3832         65
  57.5689         57
  57.7547         52
  57.9405         63
  58.1262         46
  58.3120         62
  58.4977         46
  58.6835         54
  58.8692         58
  59.0550         58
  59.2408         45
  59.4265         59
  59.6123         51
  59.7980         52
  59.9838         52
  60.0024         60

File: ML_20220718_41_SJD_4_LaB6-1min.csv
;,2THETA,
5.0000,115
5.1858,77
5.3715,71
5.5573,73
5.7430,70
5.9288,82
6.1145,61
6.3003,61
6.4860,65
6.6718,64
6.8576,60
7.0433,59
7.2291,66
7.4148,51
7.6006,68
7.7863,64
7.9721,74
8.1579,68
8.3436,70
8.5294,78
8.7151,70
8.9009,85
9.0866,67
9.2724,71
9.4581,81
9.6439,90
9.8297,84
10.0154,83
10.2012,99
10.3869,90
10.5727,86
10.7584,96
10.9442,107
11.1299,81
11.3157,93
11.5015,88
11.6872,82
11.8730,86
12.0587,84
12.2445,96
12.4302,82
12.6160,95
12.8018,63
12.9875,74
13.1733,79
13.3590,60
13.5448,77
13.7305,78
13.9163,72
14.1020,64
14.2878,64
14.4736,62
14.6593,48
14.8451,67
15.0308,65
15.2166,73
15.4023,60
15.5881,56
15.7738,69
15.9596,58
16.1454,65
16.3311,61
16.5169,69
16.7026,59
16.8884,69
17.0741,54
17.2599,54
17.4457,62
17.6314,61
17.8172,59
18.0029,66
18.1887,60
18.3744,61
18.5602,67
18.7459,65
18.9317,65
19.1175,54
19.3032,69
19.4890,51
19.6747,71
19.8605,66
20.0462,75
20.2320,68
20.4177,63
20.6035,65
20.7893,43
20.9750,59
21.1608,81
21.3465,170
21.5323,50
21.7180,58
21.9038,66
22.0896,75
22.2753,72
22.4611,73
22.6468,72
22.8326,73
23.0183,74
23.2041,78
23.3898,72
23.5756,61
23.7614,74
23.9471,78
24.1329,70
24.3186,75
24.5044,76
24.6901,60
24.8759,74
25.0616,82
25.2474,73
25.4332,82
25.6189,54
25.8047,70
25.9904,68
26.1762,56
26.3619,60
26.5477,75
26.7335,69
26.9192,56
27.1050,71
27.2907,82
27.4765,78
27.6622,55
27.8480,75
28.0337,65
28.2195,56
28.4053,79
28.5910,62
28.7768,62
28.9625,68
29.1483,51
29.3340,65
29.5198,57
29.7055,63
29.8913,44
30.0771,62
30.2628,61
30.4486,105
30.6343,71
30.8201,56
31.0058,53
31.1916,55
31.3774,48
31.5631,56
31.7489,57
31.9346,49
32.1204,38
32.3061,45
32.4919,53
32.6776,52
32.8634,37
33.0492,39
33.2349,39
33.4207,46
33.6064,42
33.7922,39
33.9779,39
34.1637,50
34.3494,40
34.5352,38
34.7210,52
34.9067,40
35.0925,33
35.2782,42
35.4640,40
35.6497,40
35.8355,34
36.0213,34
36.2070,40
36.3928,35
36.5785,37
36.7643,32
36.9500,26
37.1358,33
37.3215,32
37.5073,51
37.6931,34
37.8788,32
38.0646,29
38.2503,29
38.4361,29
38.6218,35
38.8076,28
38.9933,39
39.1791,25
39.3649,30
39.5506,20
39.7364,25
39.9221,37
40.1079,20
40.2936,22
40.4794,28
40.6652,24
40.8509,22
41.0367,19
41.2224,18
41.4082,32
41.5939,34
41.7797,26
41.9654,21
42.1512,28
42.3370,30
42.5227,20
42.7085,20
42.8942,23
43.0800,24
43.2657,33
43.4515,32
43.6372,34
43.8230,32
44.0088,28
44.1945,28
44.3803,30
44.5660,36
44.7518,31
44.9375,31
45.1233,32
45.3091,26
45.4948,31
45.6806,30
45.8663,28
46.0521,22
46.2378,30
46.4236,26
46.6093,29
46.7951,22
46.9809,30
47.1666,23
47.3524,19
47.5381,20
47.7239,31
47.9096,25
48.0954,30
48.2811,25
48.4669,21
48.6527,22
48.8384,26
49.0242,17
49.2099,25
49.3957,25
49.5814,17
49.7672,26
49.9530,21
50.1387,24
50.3245,19
50.5102,17
50.6960,22
50.8817,20
51.0675,27
51.2532,17
51.4390,23
51.6248,22
51.8105,26
51.9963,19
52.1820,19
52.3678,20
52.5535,30
52.7393,22
52.9250,23
53.1108,18
53.2966,21
53.4823,25
53.6681,17
53.8538,15
54.0396,28
54.2253,24
54.4111,22
54.5969,29
54.7826,17
54.9684,14
55.1541,19
55.3399,16
55.5256,16
55.7114,18
55.8971,21
56.0829,25
56.2687,27
56.4544,18
56.6402,26
56.8259,20
57.0117,23
57.1974,14
57.3832,23
57.5689,26
57.7547,19
57.9405,19
58.1262,19
58.3120,23
58.4977,20
58.6835,20
58.8692,26
59.0550,26
59.2408,18
59.4265,21
59.6123,29
59.7980,22
59.9838,16
60.0024,14