Folder: xrd_clustering/notebooks/data/xrd_data (part 5)

File: ML_20220718_20_SJD_4_LaB6-2min.uxd
; (content of file Y:\Sam\Apurva-07-20-2022\puck4\ML_20220718_20_SJD_0_LaB6-2min.raw)
_FILEVERSION = 3
_SAMPLE = ML_20220718_20_SJD_0_LaB6-2min
_+SAMPLE =
_SITE = USA
_USER = Administrator
_GONIOMETER_CODE = 20
; Goniometer : D8 theta/2theta, stage : Unknown
_ATTACHMENTS_CODE = 0
_GONIOMETER_RADIUS = 200.5
_FIXED_DIVSLIT = 0.6
_FIXED_SAMPLESLIT = 0
_SOLLER_SLITS = 2
_FIXED_DETSLIT = 9.55
_MONOCHROMATOR = 0
; Incident beam monochromator : None
_SOLLER_SLITS_2 = N
_THIN_FILM = N
_BETA_FILTER = Y
_FIXED_ANTISLIT = 5.89
_ANALYZER_CODE = 0
; Received beam analyzer : None
_DATEMEASURED = "26-Jul-2022 09:37:31"
_WL_UNIT = A
_WL1 = 1.5406
_WL2 = 1.54439
_WL3 = 1.39222
_WLRATIO = 0.5
_ANODE = Cu
_V4_INF_CREATOR = XRDWizard
_V4_INF_CREATOR_VERSION = V2.9.0.22
_V4_INF_WIZARD_VERSION = V2.9.0.22
_V4_INF_WIZARD_ADDINS = V2.9.0.22
_V4_INF_WIZARD_DOCTYPE = XRD
_V4_INF_OSUSER = McQueenLab
_V4_INF_USER = Administrator
_V4_INF_SITE = USA
_V4_INF_SAMPLEID = ML_20220718_20_SJD_0_LaB6-2min

; Data for range 1
_DRIVE = COUPLED
_STEPTIME = 5.64
_STEPSIZE = 0.0185756
_STEPMODE = C
_START = 5
_THETA = 2.5
_2THETA = 5
_KHI = 0
_PHI = 0
_X = 0
_Y = 0
_Z = 0
_DETECTOR = 5
; Detector type : Unknown
_DETECTORSLIT = unkn
_AUX1 = 0
_AUX2 = 0
_AUX3 = 0
_TIMESTARTED = 15
_TEMP_RATE = -1
_TEMP_DELAY = -1
_KV = 40
_MA = 40
_RANGE_WL = 1.5406
_3DPLANE = 0
_V4_ADDITIONALDETECTOR = 257
_V4_PSD2THETA = 3.4139
_V4_PSDCHANNEL1 = 0
_V4_PSDAPERTURE = 12.68
_V4_PSDTYPE = 5
_V4_PSDFIXED = 0
_V4_COUNTERS_MASK = 4096
_V4_DRIVES_MASK = 0
_V4_ENCODERS_MASK = 0
_2THETACOUNTS = 1
; 2THETA  PSD
   5.0000        124
   5.1858        119
   5.3715        107
   5.5573         94
   5.7430         92
   5.9288         84
   6.1145         90
   6.3003         95
   6.4860        103
   6.6718         78
   6.8576         73
   7.0433         93
   7.2291         81
   7.4148         92
   7.6006         70
   7.7863         80
   7.9721        101
   8.1579         95
   8.3436        113
   8.5294        103
   8.7151         82
   8.9009        115
   9.0866        117
   9.2724        113
   9.4581        102
   9.6439        131
   9.8297        122
  10.0154        116
  10.2012        123
  10.3869         95
  10.5727        106
  10.7584        106
  10.9442        118
  11.1299        142
  11.3157        126
  11.5015        100
  11.6872         99
  11.8730        106
  12.0587        105
  12.2445        111
  12.4302        114
  12.6160        100
  12.8018        127
  12.9875        108
  13.1733        115
  13.3590        107
  13.5448         97
  13.7305         94
  13.9163         83
  14.1020         92
  14.2878         75
  14.4736         81
  14.6593         96
  14.8451         86
  15.0308         72
  15.2166         92
  15.4023         84
  15.5881         96
  15.7738         66
  15.9596         69
  16.1454         75
  16.3311         83
  16.5169         89
  16.7026         80
  16.8884         93
  17.0741         94
  17.2599         71
  17.4457         78
  17.6314         87
  17.8172         73
  18.0029         80
  18.1887         67
  18.3744         92
  18.5602         79
  18.7459         77
  18.9317         88
  19.1175         83
  19.3032         94
  19.4890         79
  19.6747         71
  19.8605         81
  20.0462        113
  20.2320         96
  20.4177         99
  20.6035         90
  20.7893        108
  20.9750        105
  21.1608         98
  21.3465        241
  21.5323        106
  21.7180        114
  21.9038        123
  22.0896         80
  22.2753         93
  22.4611        113
  22.6468         94
  22.8326         85
  23.0183         89
  23.2041        119
  23.3898         93
  23.5756         91
  23.7614        124
  23.9471         94
  24.1329        123
  24.3186         94
  24.5044        107
  24.6901         86
  24.8759        108
  25.0616         95
  25.2474        105
  25.4332         90
  25.6189         91
  25.8047        110
  25.9904         99
  26.1762        105
  26.3619         91
  26.5477         94
  26.7335         87
  26.9192         94
  27.1050         99
  27.2907        103
  27.4765        107
  27.6622         97
  27.8480         83
  28.0337         78
  28.2195         86
  28.4053         77
  28.5910         91
  28.7768         91
  28.9625         90
  29.1483         71
  29.3340         79
  29.5198         76
  29.7055         84
  29.8913         84
  30.0771         77
  30.2628         94
  30.4486        115
  30.6343         79
  30.8201         77
  31.0058         61
  31.1916         69
  31.3774         60
  31.5631         69
  31.7489         63
  31.9346         75
  32.1204         66
  32.3061         72
  32.4919         69
  32.6776         66
  32.8634         60
  33.0492         58
  33.2349         65
  33.4207         52
  33.6064         42
  33.7922         76
  33.9779         49
  34.1637         54
  34.3494         52
  34.5352         65
  34.7210         64
  34.9067         60
  35.0925         53
  35.2782         47
  35.4640         41
  35.6497         48
  35.8355         55
  36.0213         48
  36.2070         51
  36.3928         40
  36.5785         44
  36.7643         59
  36.9500         37
  37.1358         45
  37.3215         46
  37.5073         54
  37.6931         57
  37.8788         45
  38.0646         52
  38.2503         34
  38.4361         40
  38.6218         32
  38.8076         30
  38.9933         29
  39.1791         51
  39.3649         42
  39.5506         34
  39.7364         37
  39.9221         43
  40.1079         39
  40.2936         33
  40.4794         37
  40.6652         39
  40.8509         27
  41.0367         31
  41.2224         30
  41.4082         46
  41.5939         37
  41.7797         41
  41.9654         38
  42.1512         30
  42.3370         36
  42.5227         27
  42.7085         41
  42.8942         47
  43.0800         33
  43.2657         40
  43.4515         45
  43.6372         39
  43.8230         40
  44.0088         43
  44.1945         28
  44.3803         39
  44.5660         51
  44.7518         51
  44.9375         43
  45.1233         33
  45.3091         29
  45.4948         36
  45.6806         25
  45.8663         29
  46.0521         39
  46.2378         28
  46.4236         33
  46.6093         35
  46.7951         49
  46.9809         31
  47.1666         30
  47.3524         31
  47.5381         30
  47.7239         34
  47.9096         28
  48.0954         31
  48.2811         32
  48.4669         32
  48.6527         30
  48.8384         33
  49.0242         39
  49.2099         33
  49.3957         32
  49.5814         33
  49.7672         30
  49.9530         22
  50.1387         22
  50.3245         37
  50.5102         28
  50.6960         30
  50.8817         25
  51.0675         28
  51.2532         20
  51.4390         33
  51.6248         42
  51.8105         36
  51.9963         25
  52.1820         31
  52.3678         26
  52.5535         23
  52.7393         26
  52.9250         30
  53.1108         27
  53.2966         27
  53.4823         27
  53.6681         29
  53.8538         27
  54.0396         39
  54.2253         35
  54.4111         32
  54.5969         24
  54.7826         25
  54.9684         33
  55.1541         35
  55.3399         24
  55.5256         30
  55.7114         24
  55.8971         33
  56.0829         30
  56.2687         32
  56.4544         25
  56.6402         25
  56.8259         33
  57.0117         32
  57.1974         25
  57.3832         28
  57.5689         32
  57.7547         21
  57.9405         21
  58.1262         29
  58.3120         28
  58.4977         21
  58.6835         29
  58.8692         29
  59.0550         29
  59.2408         26
  59.4265         24
  59.6123         23
  59.7980         32
  59.9838         35
  60.0024         26

File: ML_20220718_21_SJD_4_LaB6-2min.csv
;,2THETA,
5.0000,158
5.1858,123
5.3715,119
5.5573,106
5.7430,107
5.9288,92
6.1145,83
6.3003,76
6.4860,86
6.6718,101
6.8576,82
7.0433,77
7.2291,70
7.4148,73
7.6006,102
7.7863,92
7.9721,109
8.1579,89
8.3436,102
8.5294,112
8.7151,108
8.9009,100
9.0866,123
9.2724,117
9.4581,126
9.6439,95
9.8297,115
10.0154,112
10.2012,122
10.3869,112
10.5727,130
10.7584,126
10.9442,109
11.1299,134
11.3157,122
11.5015,115
11.6872,102
11.8730,114
12.0587,107
12.2445,116
12.4302,96
12.6160,89
12.8018,92
12.9875,103
13.1733,104
13.3590,94
13.5448,73
13.7305,97
13.9163,101
14.1020,94
14.2878,86
14.4736,84
14.6593,75
14.8451,82
15.0308,94
15.2166,71
15.4023,81
15.5881,70
15.7738,63
15.9596,75
16.1454,78
16.3311,83
16.5169,79
16.7026,96
16.8884,85
17.0741,92
17.2599,81
17.4457,101
17.6314,92
17.8172,82
18.0029,92
18.1887,90
18.3744,97
18.5602,64
18.7459,91
18.9317,75
19.1175,80
19.3032,89
19.4890,92
19.6747,112
19.8605,96
20.0462,87
20.2320,95
20.4177,97
20.6035,90
20.7893,88
20.9750,108
21.1608,120
21.3465,239
21.5323,90
21.7180,114
21.9038,108
22.0896,83
22.2753,100
22.4611,109
22.6468,97
22.8326,95
23.0183,104
23.2041,96
23.3898,99
23.5756,106
23.7614,89
23.9471,100
24.1329,96
24.3186,119
24.5044,109
24.6901,89
24.8759,90
25.0616,102
25.2474,109
25.4332,85
25.6189,100
25.8047,85
25.9904,84
26.1762,98
26.3619,109
26.5477,103
26.7335,93
26.9192,107
27.1050,85
27.2907,99
27.4765,91
27.6622,87
27.8480,84
28.0337,87
28.2195,84
28.4053,80
28.5910,75
28.7768,76
28.9625,84
29.1483,82
29.3340,67
29.5198,87
29.7055,76
29.8913,60
30.0771,89
30.2628,74
30.4486,135
30.6343,83
30.8201,78
31.0058,66
31.1916,76
31.3774,71
31.5631,63
31.7489,88
31.9346,63
32.1204,67
32.3061,64
32.4919,80
32.6776,64
32.8634,77
33.0492,56
33.2349,54
33.4207,63
33.6064,50
33.7922,57
33.9779,51
34.1637,54
34.3494,47
34.5352,54
34.7210,77
34.9067,67
35.0925,61
35.2782,42
35.4640,36
35.6497,40
35.8355,55
36.0213,39
36.2070,46
36.3928,59
36.5785,50
36.7643,53
36.9500,56
37.1358,51
37.3215,44
37.5073,48
37.6931,49
37.8788,37
38.0646,37
38.2503,48
38.4361,50
38.6218,54
38.8076,41
38.9933,44
39.1791,36
39.3649,42
39.5506,39
39.7364,55
39.9221,50
40.1079,45
40.2936,25
40.4794,31
40.6652,40
40.8509,40
41.0367,50
41.2224,30
41.4082,27
41.5939,33
41.7797,41
41.9654,36
42.1512,43
42.3370,31
42.5227,30
42.7085,37
42.8942,49
43.0800,31
43.2657,51
43.4515,55
43.6372,60
43.8230,26
44.0088,34
44.1945,37
44.3803,41
44.5660,27
44.7518,37
44.9375,34
45.1233,36
45.3091,39
45.4948,39
45.6806,41
45.8663,36
46.0521,28
46.2378,36
46.4236,27
46.6093,32
46.7951,29
46.9809,38
47.1666,32
47.3524,43
47.5381,47
47.7239,29
47.9096,28
48.0954,35
48.2811,27
48.4669,27
48.6527,35
48.8384,32
49.0242,32
49.2099,32
49.3957,36
49.5814,24
49.7672,23
49.9530,24
50.1387,29
50.3245,30
50.5102,30
50.6960,32
50.8817,31
51.0675,30
51.2532,28
51.4390,35
51.6248,29
51.8105,27
51.9963,29
52.1820,41
52.3678,24
52.5535,25
52.7393,25
52.9250,29
53.1108,42
53.2966,23
53.4823,42
53.6681,32
53.8538,40
54.0396,18
54.2253,31
54.4111,31
54.5969,27
54.7826,29
54.9684,37
55.1541,24
55.3399,25
55.5256,30
55.7114,27
55.8971,30
56.0829,27
56.2687,28
56.4544,26
56.6402,29
56.8259,26
57.0117,28
57.1974,33
57.3832,32
57.5689,37
57.7547,28
57.9405,33
58.1262,24
58.3120,23
58.4977,31
58.6835,33
58.8692,22
59.0550,23
59.2408,21
59.4265,27
59.6123,24
59.7980,36
59.9838,16
60.0024,34

File: ML_20220718_22_SJD_4_LaB6-2min.csv
;,2THETA,
5.0000,132
5.1858,134
5.3715,132
5.5573,128
5.7430,115
5.9288,100
6.1145,94
6.3003,95
6.4860,96
6.6718,87
6.8576,98
7.0433,75
7.2291,98
7.4148,85
7.6006,90
7.7863,93
7.9721,85
8.1579,88
8.3436,103
8.5294,97
8.7151,112
8.9009,122
9.0866,105
9.2724,100
9.4581,112
9.6439,120
9.8297,132
10.0154,123
10.2012,100
10.3869,120
10.5727,120
10.7584,120
10.9442,98
11.1299,131
11.3157,96
11.5015,109
11.6872,133
11.8730,110
12.0587,106
12.2445,110
12.4302,115
12.6160,103
12.8018,93
12.9875,102
13.1733,113
13.3590,106
13.5448,108
13.7305,84
13.9163,81
14.1020,94
14.2878,83
14.4736,82
14.6593,86
14.8451,79
15.0308,99
15.2166,91
15.4023,78
15.5881,75
15.7738,95
15.9596,93
16.1454,84
16.3311,82
16.5169,97
16.7026,87
16.8884,84
17.0741,74
17.2599,71
17.4457,76
17.6314,67
17.8172,92
18.0029,72
18.1887,81
18.3744,83
18.5602,84
18.7459,80
18.9317,83
19.1175,81
19.3032,97
19.4890,89
19.6747,95
19.8605,75
20.0462,100
20.2320,97
20.4177,99
20.6035,86
20.7893,99
20.9750,101
21.1608,130
21.3465,244
21.5323,103
21.7180,108
21.9038,107
22.0896,99
22.2753,99
22.4611,107
22.6468,116
22.8326,89
23.0183,94
23.2041,94
23.3898,92
23.5756,93
23.7614,104
23.9471,114
24.1329,111
24.3186,121
24.5044,97
24.6901,76
24.8759,102
25.0616,91
25.2474,95
25.4332,87
25.6189,83
25.8047,97
25.9904,96
26.1762,88
26.3619,96
26.5477,114
26.7335,90
26.9192,94
27.1050,97
27.2907,110
27.4765,79
27.6622,91
27.8480,94
28.0337,80
28.2195,93
28.4053,87
28.5910,93
28.7768,73
28.9625,74
29.1483,82
29.3340,86
29.5198,77
29.7055,89
29.8913,79
30.0771,75
30.2628,97
30.4486,119
30.6343,77
30.8201,73
31.0058,72
31.1916,64
31.3774,71
31.5631,71
31.7489,72
31.9346,62
32.1204,72
32.3061,71
32.4919,70
32.6776,65
32.8634,64
33.0492,54
33.2349,71
33.4207,47
33.6064,62
33.7922,56
33.9779,50
34.1637,57
34.3494,74
34.5352,66
34.7210,73
34.9067,76
35.0925,66
35.2782,47
35.4640,50
35.6497,54
35.8355,43
36.0213,56
36.2070,41
36.3928,42
36.5785,54
36.7643,46
36.9500,38
37.1358,49
37.3215,53
37.5073,56
37.6931,47
37.8788,65
38.0646,49
38.2503,43
38.4361,43
38.6218,48
38.8076,40
38.9933,38
39.1791,47
39.3649,36
39.5506,44
39.7364,45
39.9221,41
40.1079,57
40.2936,31
40.4794,32
40.6652,44
40.8509,40
41.0367,33
41.2224,32
41.4082,43
41.5939,38
41.7797,36
41.9654,37
42.1512,40
42.3370,37
42.5227,36
42.7085,39
42.8942,24
43.0800,38
43.2657,47
43.4515,35
43.6372,52
43.8230,33
44.0088,30
44.1945,26
44.3803,33
44.5660,32
44.7518,36
44.9375,41
45.1233,41
45.3091,32
45.4948,30
45.6806,39
45.8663,49
46.0521,30
46.2378,28
46.4236,38
46.6093,36
46.7951,21
46.9809,25
47.1666,29
47.3524,36
47.5381,27
47.7239,28
47.9096,34
48.0954,26
48.2811,35
48.4669,23
48.6527,27
48.8384,30
49.0242,40
49.2099,50
49.3957,35
49.5814,26
49.7672,32
49.9530,26
50.1387,32
50.3245,34
50.5102,27
50.6960,24
50.8817,34
51.0675,22
51.2532,16
51.4390,34
51.6248,35
51.8105,38
51.9963,35
52.1820,20
52.3678,23
52.5535,30
52.7393,32
52.9250,33
53.1108,32
53.2966,33
53.4823,28
53.6681,28
53.8538,23
54.0396,27
54.2253,34
54.4111,35
54.5969,26
54.7826,32
54.9684,34
55.1541,29
55.3399,18
55.5256,23
55.7114,25
55.8971,32
56.0829,39
56.2687,40
56.4544,24
56.6402,31
56.8259,32
57.0117,18
57.1974,21
57.3832,36
57.5689,26
57.7547,26
57.9405,19
58.1262,33
58.3120,37
58.4977,23
58.6835,20
58.8692,35
59.0550,31
59.2408,29
59.4265,30
59.6123,28
59.7980,27
59.9838,22
60.0024,27

File: ML_20220718_23_SJD_4_LaB6-2min.uxd
; (content of file Y:\Sam\Apurva-07-20-2022\puck4\ML_20220718_23_SJD_0_LaB6-2min.raw)
_FILEVERSION = 3
_SAMPLE = ML_20220718_23_SJD_0_LaB6-2min
_+SAMPLE =
_SITE = USA
_USER = Administrator
_GONIOMETER_CODE = 20
; Goniometer : D8 theta/2theta, stage : Unknown
_ATTACHMENTS_CODE = 0
_GONIOMETER_RADIUS = 200.5
_FIXED_DIVSLIT = 0.6
_FIXED_SAMPLESLIT = 0
_SOLLER_SLITS = 2
_FIXED_DETSLIT = 9.55
_MONOCHROMATOR = 0
; Incident beam monochromator : None
_SOLLER_SLITS_2 = N
_THIN_FILM = N
_BETA_FILTER = Y
_FIXED_ANTISLIT = 5.89
_ANALYZER_CODE = 0
; Received beam analyzer : None
_DATEMEASURED = "26-Jul-2022 09:30:21"
_WL_UNIT = A
_WL1 = 1.5406
_WL2 = 1.54439
_WL3 = 1.39222
_WLRATIO = 0.5
_ANODE = Cu
_V4_INF_CREATOR = XRDWizard
_V4_INF_CREATOR_VERSION = V2.9.0.22
_V4_INF_WIZARD_VERSION = V2.9.0.22
_V4_INF_WIZARD_ADDINS = V2.9.0.22
_V4_INF_WIZARD_DOCTYPE = XRD
_V4_INF_OSUSER = McQueenLab
_V4_INF_USER = Administrator
_V4_INF_SITE = USA
_V4_INF_SAMPLEID = ML_20220718_23_SJD_0_LaB6-2min

; Data for range 1
_DRIVE = COUPLED
_STEPTIME = 5.64
_STEPSIZE = 0.0185756
_STEPMODE = C
_START = 5
_THETA = 2.5
_2THETA = 5
_KHI = 0
_PHI = 0
_X = 0
_Y = 0
_Z = 0
_DETECTOR = 5
; Detector type : Unknown
_DETECTORSLIT = unkn
_AUX1 = 0
_AUX2 = 0
_AUX3 = 0
_TIMESTARTED = 15
_TEMP_RATE = -1
_TEMP_DELAY = -1
_KV = 40
_MA = 40
_RANGE_WL = 1.5406
_3DPLANE = 0
_V4_ADDITIONALDETECTOR = 257
_V4_PSD2THETA = 3.3682
_V4_PSDCHANNEL1 = 0
_V4_PSDAPERTURE = 12.68
_V4_PSDTYPE = 5
_V4_PSDFIXED = 0
_V4_COUNTERS_MASK = 4096
_V4_DRIVES_MASK = 0
_V4_ENCODERS_MASK = 0
_2THETACOUNTS = 1
; 2THETA  PSD
   5.0000        146
   5.1858        133
   5.3715        121
   5.5573        108
   5.7430         98
   5.9288         74
   6.1145         86
   6.3003        101
   6.4860         92
   6.6718         95
   6.8576         95
   7.0433         79
   7.2291         82
   7.4148         87
   7.6006         88
   7.7863         98
   7.9721         89
   8.1579         98
   8.3436         97
   8.5294        105
   8.7151        109
   8.9009        101
   9.0866        114
   9.2724        117
   9.4581        121
   9.6439        125
   9.8297        106
  10.0154        112
  10.2012        118
  10.3869        124
  10.5727        137
  10.7584        129
  10.9442        114
  11.1299        110
  11.3157        109
  11.5015        112
  11.6872        135
  11.8730        122
  12.0587        114
  12.2445        105
  12.4302        125
  12.6160        111
  12.8018        102
  12.9875        111
  13.1733        106
  13.3590        101
  13.5448         86
  13.7305        104
  13.9163         93
  14.1020         90
  14.2878         94
  14.4736         87
  14.6593         67
  14.8451         77
  15.0308         80
  15.2166         70
  15.4023         77
  15.5881         65
  15.7738         88
  15.9596         69
  16.1454         76
  16.3311         74
  16.5169         94
  16.7026         79
  16.8884         67
  17.0741         95
  17.2599         68
  17.4457         71
  17.6314         82
  17.8172         74
  18.0029         75
  18.1887         93
  18.3744         59
  18.5602         74
  18.7459         74
  18.9317         87
  19.1175         73
  19.3032         79
  19.4890         85
  19.6747         94
  19.8605         86
  20.0462         87
  20.2320         89
  20.4177         93
  20.6035         92
  20.7893        103
  20.9750         83
  21.1608        109
  21.3465        240
  21.5323        109
  21.7180         94
  21.9038         77
  22.0896         89
  22.2753        117
  22.4611        107
  22.6468         86
  22.8326        105
  23.0183         98
  23.2041         80
  23.3898         91
  23.5756        117
  23.7614         90
  23.9471        111
  24.1329        122
  24.3186        113
  24.5044        106
  24.6901        103
  24.8759        102
  25.0616         92
  25.2474         89
  25.4332         89
  25.6189        112
  25.8047        105
  25.9904         91
  26.1762        101
  26.3619         92
  26.5477        114
  26.7335         93
  26.9192         95
  27.1050         93
  27.2907        108
  27.4765         95
  27.6622         91
  27.8480        100
  28.0337         84
  28.2195         76
  28.4053         87
  28.5910         84
  28.7768         75
  28.9625         87
  29.1483         68
  29.3340         79
  29.5198         80
  29.7055         73
  29.8913         83
  30.0771         66
  30.2628         60
  30.4486        111
  30.6343         82
  30.8201         63
  31.0058         73
  31.1916         60
  31.3774         71
  31.5631         63
  31.7489         65
  31.9346         61
  32.1204         64
  32.3061         63
  32.4919         80
  32.6776         71
  32.8634         60
  33.0492         46
  33.2349         57
  33.4207         47
  33.6064         69
  33.7922         60
  33.9779         57
  34.1637         72
  34.3494         45
  34.5352         52
  34.7210         73
  34.9067         60
  35.0925         48
  35.2782         47
  35.4640         34
  35.6497         50
  35.8355         51
  36.0213         40
  36.2070         53
  36.3928         32
  36.5785         63
  36.7643         42
  36.9500         53
  37.1358         47
  37.3215         53
  37.5073         59
  37.6931         52
  37.8788         47
  38.0646         42
  38.2503         30
  38.4361         47
  38.6218         50
  38.8076         40
  38.9933         46
  39.1791         35
  39.3649         30
  39.5506         35
  39.7364         46
  39.9221         49
  40.1079         38
  40.2936         31
  40.4794         35
  40.6652         44
  40.8509         42
  41.0367         60
  41.2224         45
  41.4082         35
  41.5939         39
  41.7797         48
  41.9654         38
  42.1512         35
  42.3370         35
  42.5227         38
  42.7085         39
  42.8942         37
  43.0800         39
  43.2657         50
  43.4515         47
  43.6372         53
  43.8230         54
  44.0088         33
  44.1945         29
  44.3803         24
  44.5660         34
  44.7518         35
  44.9375         35
  45.1233         39
  45.3091         39
  45.4948         27
  45.6806         31
  45.8663         36
  46.0521         28
  46.2378         39
  46.4236         28
  46.6093         30
  46.7951         28
  46.9809         39
  47.1666         27
  47.3524         30
  47.5381         29
  47.7239         27
  47.9096         29
  48.0954         36
  48.2811         24
  48.4669         20
  48.6527         29
  48.8384         34
  49.0242         35
  49.2099         28
  49.3957         27
  49.5814         28
  49.7672         35
  49.9530         34
  50.1387         27
  50.3245         24
  50.5102         32
  50.6960         28
  50.8817         34
  51.0675         34
  51.2532         27
  51.4390         32
  51.6248         30
  51.8105         35
  51.9963         26
  52.1820         24
  52.3678         20
  52.5535         25
  52.7393         29
  52.9250         25
  53.1108         37
  53.2966         22
  53.4823         21
  53.6681         31
  53.8538         30
  54.0396         29
  54.2253         34
  54.4111         27
  54.5969         33
  54.7826         28
  54.9684         23
  55.1541         20
  55.3399         36
  55.5256         36
  55.7114         30
  55.8971         24
  56.0829         27
  56.2687         37
  56.4544         26
  56.6402         29
  56.8259         28
  57.0117         30
  57.1974         25
  57.3832         34
  57.5689         21
  57.7547         24
  57.9405         25
  58.1262         26
  58.3120         32
  58.4977         34
  58.6835         31
  58.8692         33
  59.0550         25
  59.2408         31
  59.4265         20
  59.6123         28
  59.7980         28
  59.9838         28
  60.0024         22

File: ML_20220718_24_SJD_4_LaB6-2min.csv
;,2THETA,
5.0000,131
5.1858,127
5.3715,118
5.5573,123
5.7430,92
5.9288,107
6.1145,88
6.3003,110
6.4860,94
6.6718,91
6.8576,102
7.0433,71
7.2291,81
7.4148,92
7.6006,101
7.7863,90
7.9721,80
8.1579,89
8.3436,90
8.5294,101
8.7151,101
8.9009,99
9.0866,118
9.2724,107
9.4581,107
9.6439,97
9.8297,120
10.0154,121
10.2012,129
10.3869,139
10.5727,119
10.7584,130
10.9442,141
11.1299,117
11.3157,122
11.5015,114
11.6872,114
11.8730,118
12.0587,130
12.2445,104
12.4302,115
12.6160,116
12.8018,125
12.9875,100
13.1733,88
13.3590,99
13.5448,94
13.7305,94
13.9163,85
14.1020,100
14.2878,74
14.4736,88
14.6593,84
14.8451,75
15.0308,83
15.2166,78
15.4023,85
15.5881,83
15.7738,88
15.9596,83
16.1454,57
16.3311,86
16.5169,79
16.7026,80
16.8884,76
17.0741,77
17.2599,74
17.4457,87
17.6314,76
17.8172,75
18.0029,92
18.1887,85
18.3744,89
18.5602,68
18.7459,92
18.9317,79
19.1175,85
19.3032,80
19.4890,94
19.6747,99
19.8605,98
20.0462,96
20.2320,93
20.4177,103
20.6035,81
20.7893,97
20.9750,83
21.1608,102
21.3465,248
21.5323,99
21.7180,112
21.9038,97
22.0896,97
22.2753,95
22.4611,107
22.6468,92
22.8326,99
23.0183,112
23.2041,74
23.3898,95
23.5756,102
23.7614,100
23.9471,103
24.1329,88
24.3186,108
24.5044,116
24.6901,83
24.8759,114
25.0616,99
25.2474,90
25.4332,98
25.6189,91
25.8047,91
25.9904,103
26.1762,92
26.3619,93
26.5477,96
26.7335,90
26.9192,84
27.1050,84
27.2907,96
27.4765,112
27.6622,99
27.8480,86
28.0337,83
28.2195,86
28.4053,96
28.5910,83
28.7768,58
28.9625,73
29.1483,74
29.3340,79
29.5198,63
29.7055,92
29.8913,64
30.0771,67
30.2628,79
30.4486,112
30.6343,78
30.8201,81
31.0058,68
31.1916,74
31.3774,68
31.5631,56
31.7489,69
31.9346,72
32.1204,68
32.3061,61
32.4919,67
32.6776,46
32.8634,64
33.0492,73
33.2349,67
33.4207,58
33.6064,52
33.7922,52
33.9779,55
34.1637,57
34.3494,60
34.5352,44
34.7210,72
34.9067,61
35.0925,62
35.2782,51
35.4640,52
35.6497,57
35.8355,46
36.0213,51
36.2070,48
36.3928,38
36.5785,44
36.7643,50
36.9500,45
37.1358,40
37.3215,50
37.5073,56
37.6931,50
37.8788,44
38.0646,43
38.2503,41
38.4361,49
38.6218,38
38.8076,44
38.9933,47
39.1791,38
39.3649,41
39.5506,40
39.7364,46
39.9221,38
40.1079,44
40.2936,40
40.4794,38
40.6652,37
40.8509,39
41.0367,47
41.2224,28
41.4082,42
41.5939,42
41.7797,35
41.9654,36
42.1512,30
42.3370,31
42.5227,44
42.7085,38
42.8942,46
43.0800,39
43.2657,41
43.4515,46
43.6372,62
43.8230,26
44.0088,40
44.1945,30
44.3803,39
44.5660,42
44.7518,40
44.9375,43
45.1233,26
45.3091,29
45.4948,41
45.6806,23
45.8663,34
46.0521,35
46.2378,32
46.4236,37
46.6093,30
46.7951,31
46.9809,20
47.1666,31
47.3524,44
47.5381,32
47.7239,33
47.9096,33
48.0954,31
48.2811,38
48.4669,20
48.6527,31
48.8384,30
49.0242,32
49.2099,32
49.3957,42
49.5814,27
49.7672,31
49.9530,28
50.1387,24
50.3245,28
50.5102,29
50.6960,37
50.8817,26
51.0675,27
51.2532,30
51.4390,30
51.6248,41
51.8105,33
51.9963,28
52.1820,32
52.3678,30
52.5535,28
52.7393,27
52.9250,38
53.1108,33
53.2966,23
53.4823,28
53.6681,31
53.8538,28
54.0396,26
54.2253,26
54.4111,27
54.5969,34
54.7826,24
54.9684,19
55.1541,25
55.3399,17
55.5256,21
55.7114,20
55.8971,34
56.0829,29
56.2687,29
56.4544,25
56.6402,34
56.8259,21
57.0117,29
57.1974,30
57.3832,29
57.5689,23
57.7547,33
57.9405,29
58.1262,31
58.3120,32
58.4977,27
58.6835,26
58.8692,24
59.0550,23
59.2408,33
59.4265,30
59.6123,24
59.7980,26
59.9838,39
60.0024,23