Folder: xrd_clustering/notebooks/data/xrd_data (part 37)

File: ML_20220720_38_SJD_4_LaB6-1min.csv
;,2THETA,
5.0000,114
5.1858,94
5.3715,106
5.5573,76
5.7430,79
5.9288,59
6.1145,66
6.3003,73
6.4860,62
6.6718,61
6.8576,67
7.0433,61
7.2291,58
7.4148,47
7.6006,62
7.7863,57
7.9721,74
8.1579,72
8.3436,67
8.5294,64
8.7151,86
8.9009,89
9.0866,89
9.2724,84
9.4581,80
9.6439,80
9.8297,73
10.0154,74
10.2012,105
10.3869,82
10.5727,78
10.7584,92
10.9442,90
11.1299,99
11.3157,87
11.5015,78
11.6872,85
11.8730,89
12.0587,82
12.2445,98
12.4302,73
12.6160,83
12.8018,81
12.9875,75
13.1733,76
13.3590,60
13.5448,86
13.7305,63
13.9163,61
14.1020,74
14.2878,62
14.4736,65
14.6593,54
14.8451,52
15.0308,74
15.2166,60
15.4023,55
15.5881,79
15.7738,51
15.9596,69
16.1454,55
16.3311,63
16.5169,49
16.7026,66
16.8884,84
17.0741,62
17.2599,60
17.4457,72
17.6314,58
17.8172,59
18.0029,62
18.1887,56
18.3744,59
18.5602,60
18.7459,57
18.9317,52
19.1175,62
19.3032,54
19.4890,53
19.6747,64
19.8605,67
20.0462,71
20.2320,62
20.4177,73
20.6035,59
20.7893,62
20.9750,78
21.1608,94
21.3465,176
21.5323,82
21.7180,54
21.9038,71
22.0896,57
22.2753,73
22.4611,60
22.6468,81
22.8326,79
23.0183,73
23.2041,77
23.3898,68
23.5756,72
23.7614,60
23.9471,71
24.1329,65
24.3186,85
24.5044,80
24.6901,73
24.8759,71
25.0616,74
25.2474,64
25.4332,71
25.6189,66
25.8047,74
25.9904,70
26.1762,55
26.3619,71
26.5477,71
26.7335,88
26.9192,72
27.1050,86
27.2907,58
27.4765,68
27.6622,61
27.8480,61
28.0337,54
28.2195,58
28.4053,68
28.5910,66
28.7768,54
28.9625,53
29.1483,72
29.3340,58
29.5198,63
29.7055,52
29.8913,52
30.0771,53
30.2628,57
30.4486,80
30.6343,59
30.8201,52
31.0058,68
31.1916,44
31.3774,59
31.5631,41
31.7489,59
31.9346,52
32.1204,51
32.3061,35
32.4919,55
32.6776,52
32.8634,58
33.0492,45
33.2349,43
33.4207,42
33.6064,46
33.7922,27
33.9779,33
34.1637,26
34.3494,46
34.5352,48
34.7210,44
34.9067,37
35.0925,41
35.2782,28
35.4640,35
35.6497,26
35.8355,45
36.0213,35
36.2070,27
36.3928,37
36.5785,34
36.7643,37
36.9500,36
37.1358,38
37.3215,26
37.5073,35
37.6931,28
37.8788,30
38.0646,21
38.2503,37
38.4361,23
38.6218,21
38.8076,39
38.9933,30
39.1791,23
39.3649,22
39.5506,32
39.7364,31
39.9221,31
40.1079,16
40.2936,28
40.4794,18
40.6652,30
40.8509,25
41.0367,31
41.2224,31
41.4082,35
41.5939,23
41.7797,33
41.9654,19
42.1512,31
42.3370,29
42.5227,25
42.7085,37
42.8942,35
43.0800,25
43.2657,29
43.4515,33
43.6372,35
43.8230,27
44.0088,20
44.1945,30
44.3803,23
44.5660,27
44.7518,28
44.9375,19
45.1233,23
45.3091,15
45.4948,19
45.6806,34
45.8663,25
46.0521,29
46.2378,27
46.4236,28
46.6093,31
46.7951,23
46.9809,21
47.1666,29
47.3524,23
47.5381,27
47.7239,24
47.9096,23
48.0954,24
48.2811,16
48.4669,19
48.6527,27
48.8384,30
49.0242,31
49.2099,28
49.3957,29
49.5814,19
49.7672,28
49.9530,20
50.1387,15
50.3245,20
50.5102,27
50.6960,27
50.8817,25
51.0675,26
51.2532,25
51.4390,23
51.6248,15
51.8105,19
51.9963,20
52.1820,21
52.3678,24
52.5535,29
52.7393,15
52.9250,28
53.1108,28
53.2966,19
53.4823,19
53.6681,24
53.8538,19
54.0396,23
54.2253,28
54.4111,24
54.5969,20
54.7826,16
54.9684,28
55.1541,21
55.3399,21
55.5256,25
55.7114,17
55.8971,12
56.0829,15
56.2687,20
56.4544,21
56.6402,18
56.8259,22
57.0117,28
57.1974,14
57.3832,16
57.5689,29
57.7547,17
57.9405,22
58.1262,24
58.3120,16
58.4977,16
58.6835,25
58.8692,20
59.0550,17
59.2408,23
59.4265,21
59.6123,17
59.7980,19
59.9838,19
60.0024,26

File: ML_20220720_39_SJD_4_LaB6-1min.csv
;,2THETA,
5.0000,103
5.1858,79
5.3715,83
5.5573,80
5.7430,92
5.9288,65
6.1145,76
6.3003,68
6.4860,67
6.6718,49
6.8576,58
7.0433,67
7.2291,70
7.4148,59
7.6006,68
7.7863,75
7.9721,75
8.1579,69
8.3436,69
8.5294,73
8.7151,73
8.9009,61
9.0866,107
9.2724,71
9.4581,78
9.6439,72
9.8297,98
10.0154,62
10.2012,105
10.3869,84
10.5727,89
10.7584,96
10.9442,93
11.1299,88
11.3157,95
11.5015,89
11.6872,98
11.8730,88
12.0587,96
12.2445,87
12.4302,91
12.6160,71
12.8018,68
12.9875,73
13.1733,86
13.3590,67
13.5448,75
13.7305,88
13.9163,66
14.1020,69
14.2878,52
14.4736,82
14.6593,61
14.8451,47
15.0308,52
15.2166,61
15.4023,58
15.5881,68
15.7738,54
15.9596,49
16.1454,67
16.3311,76
16.5169,57
16.7026,64
16.8884,48
17.0741,60
17.2599,53
17.4457,54
17.6314,53
17.8172,40
18.0029,37
18.1887,58
18.3744,57
18.5602,64
18.7459,63
18.9317,66
19.1175,60
19.3032,60
19.4890,53
19.6747,71
19.8605,65
20.0462,57
20.2320,70
20.4177,72
20.6035,70
20.7893,52
20.9750,77
21.1608,89
21.3465,173
21.5323,70
21.7180,66
21.9038,82
22.0896,75
22.2753,77
22.4611,67
22.6468,61
22.8326,72
23.0183,79
23.2041,66
23.3898,69
23.5756,64
23.7614,83
23.9471,76
24.1329,102
24.3186,66
24.5044,83
24.6901,80
24.8759,85
25.0616,69
25.2474,67
25.4332,81
25.6189,67
25.8047,75
25.9904,69
26.1762,63
26.3619,65
26.5477,81
26.7335,77
26.9192,82
27.1050,69
27.2907,82
27.4765,56
27.6622,80
27.8480,58
28.0337,65
28.2195,61
28.4053,63
28.5910,57
28.7768,69
28.9625,73
29.1483,57
29.3340,64
29.5198,64
29.7055,68
29.8913,64
30.0771,65
30.2628,64
30.4486,88
30.6343,52
30.8201,52
31.0058,34
31.1916,58
31.3774,55
31.5631,43
31.7489,47
31.9346,67
32.1204,54
32.3061,51
32.4919,51
32.6776,52
32.8634,48
33.0492,47
33.2349,49
33.4207,47
33.6064,37
33.7922,50
33.9779,49
34.1637,37
34.3494,32
34.5352,43
34.7210,52
34.9067,46
35.0925,41
35.2782,46
35.4640,35
35.6497,54
35.8355,37
36.0213,31
36.2070,34
36.3928,40
36.5785,38
36.7643,35
36.9500,31
37.1358,33
37.3215,42
37.5073,36
37.6931,39
37.8788,31
38.0646,32
38.2503,33
38.4361,28
38.6218,31
38.8076,26
38.9933,29
39.1791,27
39.3649,33
39.5506,26
39.7364,23
39.9221,36
40.1079,22
40.2936,28
40.4794,23
40.6652,33
40.8509,36
41.0367,23
41.2224,21
41.4082,24
41.5939,32
41.7797,26
41.9654,36
42.1512,29
42.3370,25
42.5227,34
42.7085,29
42.8942,27
43.0800,28
43.2657,32
43.4515,33
43.6372,41
43.8230,28
44.0088,17
44.1945,28
44.3803,21
44.5660,27
44.7518,27
44.9375,26
45.1233,21
45.3091,27
45.4948,21
45.6806,25
45.8663,31
46.0521,21
46.2378,28
46.4236,23
46.6093,22
46.7951,23
46.9809,23
47.1666,19
47.3524,18
47.5381,25
47.7239,25
47.9096,21
48.0954,22
48.2811,27
48.4669,27
48.6527,23
48.8384,27
49.0242,28
49.2099,22
49.3957,28
49.5814,26
49.7672,21
49.9530,25
50.1387,27
50.3245,19
50.5102,18
50.6960,18
50.8817,27
51.0675,21
51.2532,29
51.4390,32
51.6248,23
51.8105,25
51.9963,27
52.1820,24
52.3678,28
52.5535,29
52.7393,29
52.9250,15
53.1108,24
53.2966,23
53.4823,23
53.6681,17
53.8538,19
54.0396,20
54.2253,17
54.4111,25
54.5969,16
54.7826,17
54.9684,19
55.1541,18
55.3399,20
55.5256,23
55.7114,22
55.8971,28
56.0829,23
56.2687,24
56.4544,25
56.6402,25
56.8259,26
57.0117,13
57.1974,22
57.3832,21
57.5689,20
57.7547,28
57.9405,20
58.1262,26
58.3120,25
58.4977,19
58.6835,10
58.8692,24
59.0550,15
59.2408,16
59.4265,19
59.6123,21
59.7980,15
59.9838,24
60.0024,21

File: ML_20220721_10_SJD_4_LaB6-4min.uxd
; (content of file Y:\Sam\Apurva-07-20-2022\puck1\ML_20220721_10_SJD_0_LaB6-4min.raw)
_FILEVERSION = 3
_SAMPLE = ML_20220721_10_SJD_0_LaB6-4min
_+SAMPLE =
_SITE = USA
_USER = Administrator
_GONIOMETER_CODE = 20
; Goniometer : D8 theta/2theta, stage : Unknown
_ATTACHMENTS_CODE = 0
_GONIOMETER_RADIUS = 200.5
_FIXED_DIVSLIT = 0.6
_FIXED_SAMPLESLIT = 0
_SOLLER_SLITS = 2
_FIXED_DETSLIT = 9.55
_MONOCHROMATOR = 0
; Incident beam monochromator : None
_SOLLER_SLITS_2 = N
_THIN_FILM = N
_BETA_FILTER = Y
_FIXED_ANTISLIT = 5.89
_ANALYZER_CODE = 0
; Received beam analyzer : None
_DATEMEASURED = "25-Jul-2022 14:37:26"
_WL_UNIT = A
_WL1 = 1.5406
_WL2 = 1.54439
_WL3 = 1.39222
_WLRATIO = 0.5
_ANODE = Cu
_V4_INF_CREATOR = XRDWizard
_V4_INF_CREATOR_VERSION = V2.9.0.22
_V4_INF_WIZARD_VERSION = V2.9.0.22
_V4_INF_WIZARD_ADDINS = V2.9.0.22
_V4_INF_WIZARD_DOCTYPE = XRD
_V4_INF_OSUSER = McQueenLab
_V4_INF_USER = Administrator
_V4_INF_SITE = USA
_V4_INF_SAMPLEID = ML_20220721_10_SJD_0_LaB6-4min

; Data for range 1
_DRIVE = COUPLED
_STEPTIME = 11.28
_STEPSIZE = 0.0185756
_STEPMODE = C
_START = 5
_THETA = 2.5
_2THETA = 5
_KHI = 0
_PHI = 0
_X = 0
_Y = 0
_Z = 0
_DETECTOR = 5
; Detector type : Unknown
_DETECTORSLIT = unkn
_AUX1 = 0
_AUX2 = 0
_AUX3 = 0
_TIMESTARTED = 15
_TEMP_RATE = -1
_TEMP_DELAY = -1
_KV = 40
_MA = 40
_RANGE_WL = 1.5406
_3DPLANE = 0
_V4_ADDITIONALDETECTOR = 257
_V4_PSD2THETA = 3.372
_V4_PSDCHANNEL1 = 0
_V4_PSDAPERTURE = 12.68
_V4_PSDTYPE = 5
_V4_PSDFIXED = 0
_V4_COUNTERS_MASK = 4096
_V4_DRIVES_MASK = 0
_V4_ENCODERS_MASK = 0
_2THETACOUNTS = 1
; 2THETA  PSD
   5.0000        259
   5.1858        221
   5.3715        220
   5.5573        196
   5.7430        173
   5.9288        198
   6.1145        196
   6.3003        182
   6.4860        187
   6.6718        173
   6.8576        164
   7.0433        134
   7.2291        152
   7.4148        152
   7.6006        172
   7.7863        183
   7.9721        194
   8.1579        171
   8.3436        175
   8.5294        179
   8.7151        189
   8.9009        217
   9.0866        221
   9.2724        226
   9.4581        234
   9.6439        221
   9.8297        255
  10.0154        240
  10.2012        267
  10.3869        268
  10.5727        250
  10.7584        218
  10.9442        224
  11.1299        222
  11.3157        251
  11.5015        241
  11.6872        246
  11.8730        245
  12.0587        260
  12.2445        221
  12.4302        239
  12.6160        243
  12.8018        206
  12.9875        205
  13.1733        205
  13.3590        224
  13.5448        204
  13.7305        197
  13.9163        185
  14.1020        182
  14.2878        177
  14.4736        181
  14.6593        164
  14.8451        155
  15.0308        151
  15.2166        175
  15.4023        179
  15.5881        178
  15.7738        155
  15.9596        174
  16.1454        168
  16.3311        197
  16.5169        168
  16.7026        149
  16.8884        186
  17.0741        162
  17.2599        162
  17.4457        172
  17.6314        157
  17.8172        153
  18.0029        144
  18.1887        170
  18.3744        173
  18.5602        170
  18.7459        142
  18.9317        183
  19.1175        179
  19.3032        156
  19.4890        196
  19.6747        165
  19.8605        186
  20.0462        153
  20.2320        180
  20.4177        187
  20.6035        214
  20.7893        205
  20.9750        176
  21.1608        198
  21.3465        303
  21.5323        197
  21.7180        197
  21.9038        220
  22.0896        208
  22.2753        205
  22.4611        197
  22.6468        210
  22.8326        202
  23.0183        200
  23.2041        188
  23.3898        217
  23.5756        208
  23.7614        219
  23.9471        218
  24.1329        203
  24.3186        259
  24.5044        200
  24.6901        221
  24.8759        195
  25.0616        197
  25.2474        187
  25.4332        207
  25.6189        186
  25.8047        183
  25.9904        177
  26.1762        176
  26.3619        187
  26.5477        189
  26.7335        172
  26.9192        177
  27.1050        206
  27.2907        228
  27.4765        214
  27.6622        190
  27.8480        182
  28.0337        187
  28.2195        165
  28.4053        160
  28.5910        157
  28.7768        180
  28.9625        159
  29.1483        166
  29.3340        147
  29.5198        144
  29.7055        167
  29.8913        171
  30.0771        147
  30.2628        163
  30.4486        305
  30.6343        180
  30.8201        162
  31.0058        144
  31.1916        169
  31.3774        129
  31.5631        142
  31.7489        128
  31.9346        125
  32.1204        144
  32.3061        143
  32.4919        148
  32.6776        146
  32.8634        128
  33.0492        129
  33.2349        134
  33.4207        119
  33.6064        113
  33.7922         98
  33.9779        129
  34.1637        120
  34.3494        114
  34.5352        107
  34.7210        125
  34.9067        138
  35.0925        104
  35.2782        102
  35.4640        114
  35.6497        106
  35.8355         92
  36.0213         88
  36.2070        101
  36.3928         98
  36.5785         96
  36.7643         82
  36.9500         86
  37.1358        103
  37.3215        106
  37.5073        149
  37.6931         85
  37.8788         88
  38.0646         93
  38.2503         83
  38.4361         69
  38.6218        100
  38.8076         98
  38.9933         87
  39.1791         86
  39.3649         65
  39.5506         68
  39.7364         85
  39.9221         87
  40.1079         80
  40.2936         85
  40.4794         67
  40.6652         91
  40.8509         64
  41.0367         90
  41.2224         88
  41.4082         60
  41.5939         68
  41.7797         89
  41.9654         79
  42.1512         60
  42.3370         80
  42.5227         81
  42.7085         78
  42.8942         80
  43.0800         85
  43.2657         83
  43.4515         60
  43.6372         93
  43.8230         74
  44.0088         68
  44.1945         86
  44.3803         71
  44.5660         81
  44.7518         61
  44.9375         70
  45.1233         63
  45.3091         58
  45.4948         67
  45.6806         75
  45.8663         70
  46.0521         67
  46.2378         50
  46.4236         51
  46.6093         63
  46.7951         62
  46.9809         67
  47.1666         52
  47.3524         71
  47.5381         71
  47.7239         65
  47.9096         54
  48.0954         60
  48.2811         55
  48.4669         64
  48.6527         49
  48.8384         72
  49.0242        107
  49.2099         75
  49.3957         55
  49.5814         63
  49.7672         63
  49.9530         71
  50.1387         67
  50.3245         61
  50.5102         58
  50.6960         69
  50.8817         60
  51.0675         57
  51.2532         53
  51.4390         70
  51.6248         79
  51.8105         59
  51.9963         70
  52.1820         70
  52.3678         53
  52.5535         67
  52.7393         55
  52.9250         58
  53.1108         58
  53.2966         63
  53.4823         46
  53.6681         61
  53.8538         73
  54.0396         71
  54.2253         61
  54.4111         66
  54.5969         55
  54.7826         59
  54.9684         56
  55.1541         64
  55.3399         48
  55.5256         61
  55.7114         56
  55.8971         60
  56.0829         52
  56.2687         60
  56.4544         63
  56.6402         75
  56.8259         60
  57.0117         53
  57.1974         51
  57.3832         61
  57.5689         62
  57.7547         62
  57.9405         45
  58.1262         45
  58.3120         55
  58.4977         73
  58.6835         47
  58.8692         50
  59.0550         65
  59.2408         44
  59.4265         49
  59.6123         59
  59.7980         48
  59.9838         51
  60.0024         49

File: ML_20220721_11_SJD_4_LaB6-4min.uxd
; (content of file Y:\Sam\Apurva-07-20-2022\puck1\ML_20220721_11_SJD_0_LaB6-4min.raw)
_FILEVERSION = 3
_SAMPLE = ML_20220721_11_SJD_0_LaB6-4min
_+SAMPLE =
_SITE = USA
_USER = Administrator
_GONIOMETER_CODE = 20
; Goniometer : D8 theta/2theta, stage : Unknown
_ATTACHMENTS_CODE = 0
_GONIOMETER_RADIUS = 200.5
_FIXED_DIVSLIT = 0.6
_FIXED_SAMPLESLIT = 0
_SOLLER_SLITS = 2
_FIXED_DETSLIT = 9.55
_MONOCHROMATOR = 0
; Incident beam monochromator : None
_SOLLER_SLITS_2 = N
_THIN_FILM = N
_BETA_FILTER = Y
_FIXED_ANTISLIT = 5.89
_ANALYZER_CODE = 0
; Received beam analyzer : None
_DATEMEASURED = "25-Jul-2022 14:41:55"
_WL_UNIT = A
_WL1 = 1.5406
_WL2 = 1.54439
_WL3 = 1.39222
_WLRATIO = 0.5
_ANODE = Cu
_V4_INF_CREATOR = XRDWizard
_V4_INF_CREATOR_VERSION = V2.9.0.22
_V4_INF_WIZARD_VERSION = V2.9.0.22
_V4_INF_WIZARD_ADDINS = V2.9.0.22
_V4_INF_WIZARD_DOCTYPE = XRD
_V4_INF_OSUSER = McQueenLab
_V4_INF_USER = Administrator
_V4_INF_SITE = USA
_V4_INF_SAMPLEID = ML_20220721_11_SJD_0_LaB6-4min

; Data for range 1
_DRIVE = COUPLED
_STEPTIME = 11.28
_STEPSIZE = 0.0185756
_STEPMODE = C
_START = 5
_THETA = 2.5
_2THETA = 5
_KHI = 0
_PHI = 0
_X = 0
_Y = 0
_Z = 0
_DETECTOR = 5
; Detector type : Unknown
_DETECTORSLIT = unkn
_AUX1 = 0
_AUX2 = 0
_AUX3 = 0
_TIMESTARTED = 16
_TEMP_RATE = -1
_TEMP_DELAY = -1
_KV = 40
_MA = 40
_RANGE_WL = 1.5406
_3DPLANE = 0
_V4_ADDITIONALDETECTOR = 257
_V4_PSD2THETA = 3.3924
_V4_PSDCHANNEL1 = 0
_V4_PSDAPERTURE = 12.68
_V4_PSDTYPE = 5
_V4_PSDFIXED = 0
_V4_COUNTERS_MASK = 4096
_V4_DRIVES_MASK = 0
_V4_ENCODERS_MASK = 0
_2THETACOUNTS = 1
; 2THETA  PSD
   5.0000        288
   5.1858        220
   5.3715        222
   5.5573        214
   5.7430        209
   5.9288        183
   6.1145        196
   6.3003        154
   6.4860        167
   6.6718        191
   6.8576        154
   7.0433        156
   7.2291        164
   7.4148        158
   7.6006        176
   7.7863        170
   7.9721        178
   8.1579        192
   8.3436        217
   8.5294        229
   8.7151        227
   8.9009        210
   9.0866        183
   9.2724        214
   9.4581        221
   9.6439        236
   9.8297        229
  10.0154        265
  10.2012        221
  10.3869        254
  10.5727        255
  10.7584        265
  10.9442        274
  11.1299        235
  11.3157        212
  11.5015        228
  11.6872        255
  11.8730        237
  12.0587        255
  12.2445        232
  12.4302        203
  12.6160        230
  12.8018        205
  12.9875        217
  13.1733        224
  13.3590        210
  13.5448        186
  13.7305        189
  13.9163        194
  14.1020        182
  14.2878        172
  14.4736        150
  14.6593        167
  14.8451        162
  15.0308        157
  15.2166        171
  15.4023        154
  15.5881        170
  15.7738        172
  15.9596        187
  16.1454        147
  16.3311        161
  16.5169        162
  16.7026        167
  16.8884        171
  17.0741        149
  17.2599        185
  17.4457        163
  17.6314        188
  17.8172        141
  18.0029        157
  18.1887        149
  18.3744        165
  18.5602        178
  18.7459        170
  18.9317        153
  19.1175        168
  19.3032        181
  19.4890        178
  19.6747        181
  19.8605        170
  20.0462        205
  20.2320        187
  20.4177        182
  20.6035        179
  20.7893        196
  20.9750        186
  21.1608        227
  21.3465        354
  21.5323        201
  21.7180        204
  21.9038        222
  22.0896        182
  22.2753        190
  22.4611        207
  22.6468        204
  22.8326        205
  23.0183        195
  23.2041        210
  23.3898        202
  23.5756        227
  23.7614        196
  23.9471        184
  24.1329        219
  24.3186        213
  24.5044        208
  24.6901        195
  24.8759        219
  25.0616        193
  25.2474        196
  25.4332        181
  25.6189        205
  25.8047        210
  25.9904        185
  26.1762        208
  26.3619        214
  26.5477        198
  26.7335        187
  26.9192        217
  27.1050        194
  27.2907        248
  27.4765        196
  27.6622        176
  27.8480        166
  28.0337        170
  28.2195        169
  28.4053        156
  28.5910        185
  28.7768        168
  28.9625        139
  29.1483        170
  29.3340        181
  29.5198        177
  29.7055        143
  29.8913        167
  30.0771        169
  30.2628        168
  30.4486        291
  30.6343        151
  30.8201        167
  31.0058        168
  31.1916        150
  31.3774        164
  31.5631        110
  31.7489        136
  31.9346        140
  32.1204        122
  32.3061        115
  32.4919        141
  32.6776        118
  32.8634        137
  33.0492        119
  33.2349        116
  33.4207        106
  33.6064        105
  33.7922        113
  33.9779        126
  34.1637        104
  34.3494        119
  34.5352        119
  34.7210        113
  34.9067        136
  35.0925        119
  35.2782        107
  35.4640        116
  35.6497        127
  35.8355        101
  36.0213        105
  36.2070         88
  36.3928         96
  36.5785        108
  36.7643         90
  36.9500         93
  37.1358         90
  37.3215         88
  37.5073        149
  37.6931         93
  37.8788         92
  38.0646         76
  38.2503         89
  38.4361         70
  38.6218         89
  38.8076         78
  38.9933        104
  39.1791         83
  39.3649         85
  39.5506         75
  39.7364         90
  39.9221         71
  40.1079         91
  40.2936         77
  40.4794         95
  40.6652         70
  40.8509         73
  41.0367         94
  41.2224         70
  41.4082         73
  41.5939         81
  41.7797         80
  41.9654         79
  42.1512         77
  42.3370         58
  42.5227         65
  42.7085         75
  42.8942         68
  43.0800         85
  43.2657         91
  43.4515         69
  43.6372        104
  43.8230         76
  44.0088         58
  44.1945         66
  44.3803         76
  44.5660         66
  44.7518         80
  44.9375         82
  45.1233         76
  45.3091         71
  45.4948         69
  45.6806         59
  45.8663         62
  46.0521         85
  46.2378         60
  46.4236         66
  46.6093         81
  46.7951         68
  46.9809         74
  47.1666         63
  47.3524         67
  47.5381         58
  47.7239         63
  47.9096         59
  48.0954         62
  48.2811         71
  48.4669         54
  48.6527         56
  48.8384         64
  49.0242        102
  49.2099         75
  49.3957         56
  49.5814         56
  49.7672         59
  49.9530         68
  50.1387         50
  50.3245         81
  50.5102         60
  50.6960         54
  50.8817         56
  51.0675         57
  51.2532         79
  51.4390         88
  51.6248         75
  51.8105         70
  51.9963         61
  52.1820         56
  52.3678         57
  52.5535         50
  52.7393         69
  52.9250         63
  53.1108         62
  53.2966         53
  53.4823         61
  53.6681         63
  53.8538         74
  54.0396         70
  54.2253         39
  54.4111         60
  54.5969         41
  54.7826         58
  54.9684         59
  55.1541         59
  55.3399         49
  55.5256         62
  55.7114         46
  55.8971         57
  56.0829         67
  56.2687         67
  56.4544         67
  56.6402         49
  56.8259         59
  57.0117         50
  57.1974         53
  57.3832         48
  57.5689         64
  57.7547         53
  57.9405         68
  58.1262         58
  58.3120         48
  58.4977         49
  58.6835         57
  58.8692         56
  59.0550         60
  59.2408         53
  59.4265         50
  59.6123         61
  59.7980         51
  59.9838         56
  60.0024         58

File: ML_20220721_12_SJD_4_LaB6-4min.csv
;,2THETA,
5.0000,262
5.1858,243
5.3715,239
5.5573,224
5.7430,232
5.9288,198
6.1145,212
6.3003,167
6.4860,186
6.6718,182
6.8576,157
7.0433,167
7.2291,141
7.4148,151
7.6006,164
7.7863,181
7.9721,183
8.1579,188
8.3436,213
8.5294,207
8.7151,212
8.9009,224
9.0866,220
9.2724,219
9.4581,224
9.6439,234
9.8297,229
10.0154,231
10.2012,265
10.3869,253
10.5727,249
10.7584,230
10.9442,236
11.1299,272
11.3157,249
11.5015,229
11.6872,245
11.8730,237
12.0587,241
12.2445,225
12.4302,247
12.6160,209
12.8018,202
12.9875,218
13.1733,187
13.3590,186
13.5448,187
13.7305,207
13.9163,211
14.1020,173
14.2878,187
14.4736,184
14.6593,163
14.8451,190
15.0308,151
15.2166,181
15.4023,150
15.5881,168
15.7738,146
15.9596,157
16.1454,157
16.3311,174
16.5169,178
16.7026,156
16.8884,170
17.0741,180
17.2599,189
17.4457,179
17.6314,184
17.8172,178
18.0029,185
18.1887,164
18.3744,168
18.5602,177
18.7459,176
18.9317,162
19.1175,176
19.3032,191
19.4890,187
19.6747,197
19.8605,186
20.0462,170
20.2320,191
20.4177,190
20.6035,189
20.7893,216
20.9750,175
21.1608,217
21.3465,517
21.5323,227
21.7180,201
21.9038,185
22.0896,193
22.2753,203
22.4611,173
22.6468,177
22.8326,189
23.0183,198
23.2041,183
23.3898,185
23.5756,214
23.7614,208
23.9471,183
24.1329,202
24.3186,224
24.5044,192
24.6901,206
24.8759,228
25.0616,174
25.2474,207
25.4332,180
25.6189,204
25.8047,177
25.9904,216
26.1762,178
26.3619,170
26.5477,183
26.7335,186
26.9192,184
27.1050,207
27.2907,212
27.4765,169
27.6622,188
27.8480,200
28.0337,179
28.2195,173
28.4053,177
28.5910,154
28.7768,171
28.9625,178
29.1483,173
29.3340,167
29.5198,168
29.7055,172
29.8913,138
30.0771,153
30.2628,173
30.4486,213
30.6343,141
30.8201,151
31.0058,146
31.1916,133
31.3774,144
31.5631,137
31.7489,141
31.9346,140
32.1204,143
32.3061,125
32.4919,168
32.6776,138
32.8634,120
33.0492,120
33.2349,132
33.4207,118
33.6064,120
33.7922,108
33.9779,104
34.1637,101
34.3494,99
34.5352,116
34.7210,138
34.9067,129
35.0925,102
35.2782,91
35.4640,105
35.6497,100
35.8355,105
36.0213,97
36.2070,99
36.3928,99
36.5785,90
36.7643,104
36.9500,86
37.1358,97
37.3215,91
37.5073,101
37.6931,81
37.8788,84
38.0646,78
38.2503,79
38.4361,93
38.6218,82
38.8076,92
38.9933,78
39.1791,78
39.3649,85
39.5506,61
39.7364,76
39.9221,81
40.1079,84
40.2936,77
40.4794,72
40.6652,66
40.8509,75
41.0367,79
41.2224,60
41.4082,85
41.5939,71
41.7797,65
41.9654,70
42.1512,82
42.3370,77
42.5227,58
42.7085,59
42.8942,78
43.0800,80
43.2657,78
43.4515,72
43.6372,85
43.8230,68
44.0088,85
44.1945,80
44.3803,69
44.5660,94
44.7518,84
44.9375,73
45.1233,83
45.3091,66
45.4948,71
45.6806,69
45.8663,63
46.0521,91
46.2378,62
46.4236,59
46.6093,65
46.7951,62
46.9809,63
47.1666,63
47.3524,81
47.5381,53
47.7239,75
47.9096,56
48.0954,51
48.2811,67
48.4669,67
48.6527,54
48.8384,69
49.0242,77
49.2099,79
49.3957,73
49.5814,59
49.7672,54
49.9530,58
50.1387,58
50.3245,64
50.5102,61
50.6960,57
50.8817,66
51.0675,53
51.2532,66
51.4390,66
51.6248,62
51.8105,81
51.9963,76
52.1820,59
52.3678,53
52.5535,44
52.7393,52
52.9250,68
53.1108,54
53.2966,49
53.4823,46
53.6681,58
53.8538,51
54.0396,63
54.2253,63
54.4111,56
54.5969,64
54.7826,58
54.9684,55
55.1541,53
55.3399,58
55.5256,41
55.7114,59
55.8971,64
56.0829,58
56.2687,55
56.4544,83
56.6402,46
56.8259,62
57.0117,62
57.1974,61
57.3832,57
57.5689,55
57.7547,58
57.9405,47
58.1262,62
58.3120,55
58.4977,59
58.6835,60
58.8692,55
59.0550,59
59.2408,67
59.4265,55
59.6123,49
59.7980,54
59.9838,62
60.0024,55