Folder: xrd_clustering/notebooks/data/xrd_data (part 15)

File: ML_20220718_47_SJD_4_LaB6-4min.uxd
; (content of file Y:\Sam\Apurva-07-20-2022\puck4\ML_20220718_47_SJD_4_LaB6-4min.raw)
_FILEVERSION = 3
_SAMPLE = ML_20220718_47_SJD_4_LaB6-4min
_+SAMPLE =
_SITE = USA
_USER = Administrator
_GONIOMETER_CODE = 20
; Goniometer : D8 theta/2theta, stage : Unknown
_ATTACHMENTS_CODE = 0
_GONIOMETER_RADIUS = 200.5
_FIXED_DIVSLIT = 0.6
_FIXED_SAMPLESLIT = 0
_SOLLER_SLITS = 2
_FIXED_DETSLIT = 9.55
_MONOCHROMATOR = 0
; Incident beam monochromator : None
_SOLLER_SLITS_2 = N
_THIN_FILM = N
_BETA_FILTER = Y
_FIXED_ANTISLIT = 5.89
_ANALYZER_CODE = 0
; Received beam analyzer : None
_DATEMEASURED = "26-Jul-2022 13:47:21"
_WL_UNIT = A
_WL1 = 1.5406
_WL2 = 1.54439
_WL3 = 1.39222
_WLRATIO = 0.5
_ANODE = Cu
_V4_INF_CREATOR = XRDWizard
_V4_INF_CREATOR_VERSION = V2.9.0.22
_V4_INF_WIZARD_VERSION = V2.9.0.22
_V4_INF_WIZARD_ADDINS = V2.9.0.22
_V4_INF_WIZARD_DOCTYPE = XRD
_V4_INF_OSUSER = McQueenLab
_V4_INF_USER = Administrator
_V4_INF_SITE = USA
_V4_INF_SAMPLEID = ML_20220718_47_SJD_4_LaB6-4min

; Data for range 1
_DRIVE = COUPLED
_STEPTIME = 11.28
_STEPSIZE = 0.0185756
_STEPMODE = C
_START = 5
_THETA = 2.5
_2THETA = 5
_KHI = 0
_PHI = 0
_X = 0
_Y = 0
_Z = 0
_DETECTOR = 5
; Detector type : Unknown
_DETECTORSLIT = unkn
_AUX1 = 0
_AUX2 = 0
_AUX3 = 0
_TIMESTARTED = 15
_TEMP_RATE = -1
_TEMP_DELAY = -1
_KV = 40
_MA = 40
_RANGE_WL = 1.5406
_3DPLANE = 0
_V4_ADDITIONALDETECTOR = 257
_V4_PSD2THETA = 3.3662
_V4_PSDCHANNEL1 = 0
_V4_PSDAPERTURE = 12.68
_V4_PSDTYPE = 5
_V4_PSDFIXED = 0
_V4_COUNTERS_MASK = 4096
_V4_DRIVES_MASK = 0
_V4_ENCODERS_MASK = 0
_2THETACOUNTS = 1
; 2THETA  PSD
   5.0000        252
   5.1858        224
   5.3715        241
   5.5573        214
   5.7430        216
   5.9288        215
   6.1145        205
   6.3003        191
   6.4860        185
   6.6718        174
   6.8576        183
   7.0433        154
   7.2291        159
   7.4148        148
   7.6006        168
   7.7863        179
   7.9721        183
   8.1579        209
   8.3436        219
   8.5294        207
   8.7151        219
   8.9009        212
   9.0866        247
   9.2724        216
   9.4581        219
   9.6439        243
   9.8297        232
  10.0154        199
  10.2012        269
  10.3869        250
  10.5727        276
  10.7584        228
  10.9442        239
  11.1299        227
  11.3157        258
  11.5015        260
  11.6872        241
  11.8730        233
  12.0587        240
  12.2445        215
  12.4302        219
  12.6160        205
  12.8018        221
  12.9875        221
  13.1733        220
  13.3590        190
  13.5448        168
  13.7305        188
  13.9163        166
  14.1020        167
  14.2878        170
  14.4736        159
  14.6593        168
  14.8451        170
  15.0308        175
  15.2166        153
  15.4023        174
  15.5881        172
  15.7738        169
  15.9596        161
  16.1454        173
  16.3311        157
  16.5169        162
  16.7026        186
  16.8884        178
  17.0741        187
  17.2599        150
  17.4457        168
  17.6314        162
  17.8172        139
  18.0029        173
  18.1887        188
  18.3744        137
  18.5602        149
  18.7459        174
  18.9317        187
  19.1175        155
  19.3032        164
  19.4890        183
  19.6747        177
  19.8605        174
  20.0462        184
  20.2320        161
  20.4177        188
  20.6035        173
  20.7893        179
  20.9750        217
  21.1608        257
  21.3465        506
  21.5323        206
  21.7180        208
  21.9038        194
  22.0896        179
  22.2753        198
  22.4611        187
  22.6468        222
  22.8326        198
  23.0183        201
  23.2041        200
  23.3898        213
  23.5756        194
  23.7614        187
  23.9471        193
  24.1329        220
  24.3186        224
  24.5044        237
  24.6901        216
  24.8759        224
  25.0616        177
  25.2474        208
  25.4332        193
  25.6189        176
  25.8047        196
  25.9904        183
  26.1762        176
  26.3619        198
  26.5477        195
  26.7335        203
  26.9192        186
  27.1050        202
  27.2907        208
  27.4765        186
  27.6622        176
  27.8480        211
  28.0337        155
  28.2195        167
  28.4053        182
  28.5910        161
  28.7768        175
  28.9625        164
  29.1483        145
  29.3340        177
  29.5198        175
  29.7055        147
  29.8913        158
  30.0771        152
  30.2628        126
  30.4486        240
  30.6343        176
  30.8201        157
  31.0058        144
  31.1916        157
  31.3774        131
  31.5631        159
  31.7489        140
  31.9346        129
  32.1204        130
  32.3061        127
  32.4919        131
  32.6776        123
  32.8634        117
  33.0492        132
  33.2349        124
  33.4207        107
  33.6064        136
  33.7922        137
  33.9779        129
  34.1637        122
  34.3494        112
  34.5352        101
  34.7210        164
  34.9067        136
  35.0925        112
  35.2782        100
  35.4640         90
  35.6497        102
  35.8355         91
  36.0213         88
  36.2070         86
  36.3928        107
  36.5785         94
  36.7643         99
  36.9500        101
  37.1358         88
  37.3215         88
  37.5073        112
  37.6931         86
  37.8788         84
  38.0646         95
  38.2503         83
  38.4361         80
  38.6218         98
  38.8076         72
  38.9933         76
  39.1791         71
  39.3649         83
  39.5506         70
  39.7364         63
  39.9221         84
  40.1079         90
  40.2936         75
  40.4794         77
  40.6652         71
  40.8509         87
  41.0367         68
  41.2224         69
  41.4082         54
  41.5939         74
  41.7797         60
  41.9654         73
  42.1512         65
  42.3370         77
  42.5227         84
  42.7085         90
  42.8942         77
  43.0800         58
  43.2657         81
  43.4515         79
  43.6372         92
  43.8230         84
  44.0088         72
  44.1945         73
  44.3803         75
  44.5660         96
  44.7518         69
  44.9375         60
  45.1233         72
  45.3091         75
  45.4948         83
  45.6806         77
  45.8663         73
  46.0521         63
  46.2378         81
  46.4236         66
  46.6093         61
  46.7951         64
  46.9809         59
  47.1666         80
  47.3524         58
  47.5381         74
  47.7239         66
  47.9096         61
  48.0954         70
  48.2811         82
  48.4669         59
  48.6527         53
  48.8384         61
  49.0242         56
  49.2099         62
  49.3957         52
  49.5814         62
  49.7672         63
  49.9530         71
  50.1387         63
  50.3245         70
  50.5102         52
  50.6960         48
  50.8817         48
  51.0675         53
  51.2532         62
  51.4390         65
  51.6248         71
  51.8105         68
  51.9963         54
  52.1820         63
  52.3678         61
  52.5535         64
  52.7393         69
  52.9250         61
  53.1108         57
  53.2966         63
  53.4823         47
  53.6681         62
  53.8538         51
  54.0396         87
  54.2253         61
  54.4111         45
  54.5969         53
  54.7826         57
  54.9684         55
  55.1541         53
  55.3399         56
  55.5256         65
  55.7114         60
  55.8971         48
  56.0829         63
  56.2687         65
  56.4544         50
  56.6402         63
  56.8259         51
  57.0117         53
  57.1974         42
  57.3832         62
  57.5689         56
  57.7547         63
  57.9405         53
  58.1262         50
  58.3120         66
  58.4977         60
  58.6835         53
  58.8692         55
  59.0550         51
  59.2408         49
  59.4265         60
  59.6123         52
  59.7980         52
  59.9838         48
  60.0024         65

File: ML_20220718_48_SJD_4_LaB6-1min.csv
;,2THETA,
5.0000,109
5.1858,91
5.3715,74
5.5573,85
5.7430,75
5.9288,80
6.1145,67
6.3003,57
6.4860,79
6.6718,63
6.8576,70
7.0433,48
7.2291,58
7.4148,59
7.6006,56
7.7863,73
7.9721,63
8.1579,87
8.3436,70
8.5294,63
8.7151,86
8.9009,69
9.0866,79
9.2724,80
9.4581,78
9.6439,92
9.8297,88
10.0154,90
10.2012,85
10.3869,85
10.5727,89
10.7584,78
10.9442,89
11.1299,78
11.3157,90
11.5015,79
11.6872,64
11.8730,84
12.0587,91
12.2445,80
12.4302,91
12.6160,71
12.8018,64
12.9875,79
13.1733,87
13.3590,70
13.5448,81
13.7305,62
13.9163,64
14.1020,75
14.2878,54
14.4736,63
14.6593,56
14.8451,61
15.0308,51
15.2166,61
15.4023,50
15.5881,47
15.7738,50
15.9596,59
16.1454,59
16.3311,47
16.5169,61
16.7026,62
16.8884,51
17.0741,46
17.2599,49
17.4457,65
17.6314,60
17.8172,46
18.0029,51
18.1887,62
18.3744,58
18.5602,57
18.7459,63
18.9317,54
19.1175,79
19.3032,61
19.4890,69
19.6747,69
19.8605,67
20.0462,53
20.2320,62
20.4177,59
20.6035,67
20.7893,83
20.9750,70
21.1608,84
21.3465,193
21.5323,76
21.7180,96
21.9038,57
22.0896,62
22.2753,66
22.4611,74
22.6468,54
22.8326,68
23.0183,68
23.2041,74
23.3898,80
23.5756,68
23.7614,67
23.9471,77
24.1329,79
24.3186,78
24.5044,69
24.6901,65
24.8759,72
25.0616,81
25.2474,73
25.4332,77
25.6189,66
25.8047,71
25.9904,72
26.1762,63
26.3619,72
26.5477,65
26.7335,63
26.9192,80
27.1050,84
27.2907,83
27.4765,72
27.6622,69
27.8480,49
28.0337,68
28.2195,69
28.4053,71
28.5910,65
28.7768,57
28.9625,63
29.1483,73
29.3340,63
29.5198,55
29.7055,59
29.8913,53
30.0771,53
30.2628,63
30.4486,83
30.6343,62
30.8201,59
31.0058,58
31.1916,61
31.3774,52
31.5631,47
31.7489,55
31.9346,42
32.1204,39
32.3061,51
32.4919,53
32.6776,42
32.8634,52
33.0492,51
33.2349,46
33.4207,54
33.6064,51
33.7922,44
33.9779,44
34.1637,30
34.3494,50
34.5352,40
34.7210,48
34.9067,47
35.0925,38
35.2782,43
35.4640,34
35.6497,43
35.8355,36
36.0213,35
36.2070,32
36.3928,31
36.5785,42
36.7643,42
36.9500,35
37.1358,25
37.3215,37
37.5073,40
37.6931,37
37.8788,37
38.0646,31
38.2503,23
38.4361,36
38.6218,39
38.8076,27
38.9933,32
39.1791,39
39.3649,34
39.5506,25
39.7364,33
39.9221,25
40.1079,25
40.2936,34
40.4794,30
40.6652,21
40.8509,28
41.0367,37
41.2224,26
41.4082,26
41.5939,26
41.7797,40
41.9654,28
42.1512,24
42.3370,28
42.5227,27
42.7085,18
42.8942,33
43.0800,24
43.2657,28
43.4515,34
43.6372,41
43.8230,26
44.0088,28
44.1945,29
44.3803,35
44.5660,31
44.7518,32
44.9375,22
45.1233,31
45.3091,29
45.4948,24
45.6806,33
45.8663,18
46.0521,27
46.2378,30
46.4236,21
46.6093,27
46.7951,24
46.9809,25
47.1666,19
47.3524,29
47.5381,17
47.7239,18
47.9096,22
48.0954,23
48.2811,17
48.4669,30
48.6527,21
48.8384,25
49.0242,28
49.2099,28
49.3957,32
49.5814,28
49.7672,26
49.9530,24
50.1387,24
50.3245,23
50.5102,21
50.6960,22
50.8817,21
51.0675,26
51.2532,26
51.4390,17
51.6248,24
51.8105,28
51.9963,26
52.1820,19
52.3678,12
52.5535,19
52.7393,22
52.9250,25
53.1108,23
53.2966,24
53.4823,20
53.6681,17
53.8538,20
54.0396,24
54.2253,24
54.4111,28
54.5969,19
54.7826,18
54.9684,18
55.1541,22
55.3399,17
55.5256,19
55.7114,15
55.8971,20
56.0829,23
56.2687,19
56.4544,19
56.6402,19
56.8259,30
57.0117,30
57.1974,11
57.3832,11
57.5689,29
57.7547,28
57.9405,17
58.1262,22
58.3120,24
58.4977,20
58.6835,14
58.8692,23
59.0550,17
59.2408,17
59.4265,21
59.6123,14
59.7980,18
59.9838,20
60.0024,24

File: ML_20220718_48_SJD_4_LaB6-2min.csv
;,2THETA,
5.0000,124
5.1858,114
5.3715,106
5.5573,98
5.7430,108
5.9288,93
6.1145,88
6.3003,104
6.4860,91
6.6718,84
6.8576,77
7.0433,66
7.2291,80
7.4148,93
7.6006,77
7.7863,88
7.9721,79
8.1579,101
8.3436,91
8.5294,92
8.7151,108
8.9009,112
9.0866,100
9.2724,116
9.4581,118
9.6439,98
9.8297,111
10.0154,127
10.2012,135
10.3869,136
10.5727,105
10.7584,108
10.9442,109
11.1299,117
11.3157,131
11.5015,115
11.6872,112
11.8730,111
12.0587,127
12.2445,105
12.4302,100
12.6160,115
12.8018,120
12.9875,90
13.1733,90
13.3590,98
13.5448,103
13.7305,90
13.9163,87
14.1020,102
14.2878,92
14.4736,84
14.6593,103
14.8451,74
15.0308,78
15.2166,70
15.4023,105
15.5881,60
15.7738,79
15.9596,76
16.1454,75
16.3311,73
16.5169,86
16.7026,79
16.8884,72
17.0741,73
17.2599,83
17.4457,87
17.6314,74
17.8172,90
18.0029,92
18.1887,73
18.3744,81
18.5602,75
18.7459,68
18.9317,85
19.1175,88
19.3032,77
19.4890,71
19.6747,79
19.8605,85
20.0462,93
20.2320,69
20.4177,92
20.6035,109
20.7893,89
20.9750,108
21.1608,133
21.3465,240
21.5323,94
21.7180,101
21.9038,99
22.0896,83
22.2753,97
22.4611,85
22.6468,103
22.8326,112
23.0183,103
23.2041,101
23.3898,93
23.5756,101
23.7614,97
23.9471,124
24.1329,84
24.3186,107
24.5044,91
24.6901,109
24.8759,82
25.0616,92
25.2474,100
25.4332,83
25.6189,99
25.8047,84
25.9904,79
26.1762,88
26.3619,81
26.5477,73
26.7335,87
26.9192,76
27.1050,101
27.2907,118
27.4765,75
27.6622,76
27.8480,87
28.0337,79
28.2195,71
28.4053,90
28.5910,77
28.7768,86
28.9625,79
29.1483,66
29.3340,79
29.5198,62
29.7055,89
29.8913,74
30.0771,72
30.2628,83
30.4486,107
30.6343,82
30.8201,67
31.0058,56
31.1916,73
31.3774,69
31.5631,60
31.7489,60
31.9346,68
32.1204,66
32.3061,63
32.4919,85
32.6776,64
32.8634,57
33.0492,67
33.2349,54
33.4207,66
33.6064,61
33.7922,65
33.9779,57
34.1637,70
34.3494,61
34.5352,53
34.7210,65
34.9067,51
35.0925,51
35.2782,65
35.4640,54
35.6497,41
35.8355,53
36.0213,52
36.2070,42
36.3928,47
36.5785,60
36.7643,53
36.9500,53
37.1358,54
37.3215,52
37.5073,61
37.6931,42
37.8788,33
38.0646,47
38.2503,54
38.4361,40
38.6218,37
38.8076,38
38.9933,47
39.1791,44
39.3649,42
39.5506,42
39.7364,33
39.9221,34
40.1079,44
40.2936,43
40.4794,40
40.6652,39
40.8509,44
41.0367,22
41.2224,37
41.4082,35
41.5939,37
41.7797,39
41.9654,34
42.1512,42
42.3370,42
42.5227,41
42.7085,38
42.8942,32
43.0800,40
43.2657,46
43.4515,50
43.6372,49
43.8230,38
44.0088,33
44.1945,40
44.3803,36
44.5660,45
44.7518,32
44.9375,38
45.1233,28
45.3091,36
45.4948,30
45.6806,39
45.8663,37
46.0521,31
46.2378,34
46.4236,34
46.6093,41
46.7951,33
46.9809,37
47.1666,23
47.3524,24
47.5381,37
47.7239,30
47.9096,27
48.0954,37
48.2811,33
48.4669,35
48.6527,31
48.8384,34
49.0242,40
49.2099,21
49.3957,41
49.5814,28
49.7672,25
49.9530,38
50.1387,26
50.3245,26
50.5102,24
50.6960,23
50.8817,23
51.0675,21
51.2532,25
51.4390,37
51.6248,27
51.8105,35
51.9963,28
52.1820,26
52.3678,24
52.5535,38
52.7393,34
52.9250,23
53.1108,30
53.2966,44
53.4823,25
53.6681,36
53.8538,30
54.0396,46
54.2253,29
54.4111,18
54.5969,22
54.7826,24
54.9684,33
55.1541,23
55.3399,27
55.5256,26
55.7114,31
55.8971,25
56.0829,29
56.2687,31
56.4544,28
56.6402,37
56.8259,34
57.0117,32
57.1974,26
57.3832,31
57.5689,29
57.7547,32
57.9405,21
58.1262,27
58.3120,22
58.4977,35
58.6835,32
58.8692,23
59.0550,34
59.2408,34
59.4265,25
59.6123,26
59.7980,32
59.9838,17
60.0024,25

File: ML_20220718_48_SJD_4_LaB6-4min.csv
;,2THETA,
5.0000,259
5.1858,252
5.3715,208
5.5573,232
5.7430,233
5.9288,205
6.1145,167
6.3003,188
6.4860,177
6.6718,162
6.8576,175
7.0433,165
7.2291,170
7.4148,150
7.6006,149
7.7863,174
7.9721,181
8.1579,185
8.3436,187
8.5294,171
8.7151,191
8.9009,220
9.0866,206
9.2724,214
9.4581,217
9.6439,210
9.8297,210
10.0154,250
10.2012,245
10.3869,227
10.5727,239
10.7584,228
10.9442,243
11.1299,209
11.3157,244
11.5015,247
11.6872,233
11.8730,224
12.0587,212
12.2445,215
12.4302,191
12.6160,225
12.8018,237
12.9875,211
13.1733,209
13.3590,205
13.5448,189
13.7305,194
13.9163,209
14.1020,201
14.2878,181
14.4736,159
14.6593,168
14.8451,185
15.0308,172
15.2166,175
15.4023,152
15.5881,153
15.7738,153
15.9596,191
16.1454,195
16.3311,162
16.5169,171
16.7026,154
16.8884,142
17.0741,157
17.2599,144
17.4457,142
17.6314,167
17.8172,165
18.0029,153
18.1887,173
18.3744,161
18.5602,171
18.7459,148
18.9317,163
19.1175,187
19.3032,170
19.4890,161
19.6747,165
19.8605,185
20.0462,195
20.2320,189
20.4177,169
20.6035,181
20.7893,208
20.9750,188
21.1608,231
21.3465,496
21.5323,219
21.7180,182
21.9038,190
22.0896,170
22.2753,186
22.4611,189
22.6468,171
22.8326,208
23.0183,174
23.2041,190
23.3898,207
23.5756,204
23.7614,225
23.9471,194
24.1329,211
24.3186,232
24.5044,207
24.6901,211
24.8759,204
25.0616,207
25.2474,180
25.4332,200
25.6189,200
25.8047,179
25.9904,195
26.1762,194
26.3619,176
26.5477,171
26.7335,175
26.9192,207
27.1050,187
27.2907,236
27.4765,187
27.6622,181
27.8480,159
28.0337,152
28.2195,155
28.4053,197
28.5910,165
28.7768,171
28.9625,181
29.1483,167
29.3340,152
29.5198,180
29.7055,155
29.8913,153
30.0771,154
30.2628,148
30.4486,237
30.6343,154
30.8201,143
31.0058,146
31.1916,133
31.3774,136
31.5631,131
31.7489,119
31.9346,120
32.1204,133
32.3061,113
32.4919,141
32.6776,132
32.8634,109
33.0492,119
33.2349,112
33.4207,113
33.6064,105
33.7922,135
33.9779,102
34.1637,103
34.3494,101
34.5352,113
34.7210,132
34.9067,111
35.0925,112
35.2782,101
35.4640,97
35.6497,87
35.8355,116
36.0213,75
36.2070,88
36.3928,109
36.5785,77
36.7643,107
36.9500,93
37.1358,86
37.3215,100
37.5073,123
37.6931,91
37.8788,98
38.0646,82
38.2503,82
38.4361,72
38.6218,83
38.8076,94
38.9933,85
39.1791,72
39.3649,76
39.5506,85
39.7364,73
39.9221,94
40.1079,90
40.2936,61
40.4794,96
40.6652,89
40.8509,75
41.0367,87
41.2224,81
41.4082,68
41.5939,90
41.7797,76
41.9654,65
42.1512,82
42.3370,73
42.5227,65
42.7085,79
42.8942,87
43.0800,84
43.2657,90
43.4515,100
43.6372,88
43.8230,74
44.0088,68
44.1945,58
44.3803,69
44.5660,87
44.7518,90
44.9375,73
45.1233,67
45.3091,68
45.4948,76
45.6806,67
45.8663,63
46.0521,60
46.2378,71
46.4236,63
46.6093,62
46.7951,64
46.9809,72
47.1666,68
47.3524,76
47.5381,69
47.7239,72
47.9096,75
48.0954,51
48.2811,63
48.4669,71
48.6527,53
48.8384,61
49.0242,74
49.2099,54
49.3957,52
49.5814,73
49.7672,52
49.9530,57
50.1387,61
50.3245,74
50.5102,59
50.6960,56
50.8817,69
51.0675,57
51.2532,57
51.4390,55
51.6248,63
51.8105,67
51.9963,61
52.1820,52
52.3678,54
52.5535,55
52.7393,54
52.9250,66
53.1108,53
53.2966,67
53.4823,67
53.6681,67
53.8538,62
54.0396,65
54.2253,58
54.4111,59
54.5969,62
54.7826,66
54.9684,48
55.1541,54
55.3399,68
55.5256,61
55.7114,66
55.8971,45
56.0829,64
56.2687,71
56.4544,70
56.6402,44
56.8259,52
57.0117,57
57.1974,69
57.3832,51
57.5689,50
57.7547,50
57.9405,64
58.1262,59
58.3120,57
58.4977,50
58.6835,42
58.8692,56
59.0550,60
59.2408,53
59.4265,47
59.6123,58
59.7980,57
59.9838,48
60.0024,49

File: ML_20220718_49_SJD_4_LaB6-1min.csv
;,2THETA,
5.0000,99
5.1858,95
5.3715,96
5.5573,86
5.7430,91
5.9288,70
6.1145,71
6.3003,64
6.4860,66
6.6718,45
6.8576,57
7.0433,59
7.2291,65
7.4148,65
7.6006,71
7.7863,77
7.9721,61
8.1579,67
8.3436,74
8.5294,61
8.7151,82
8.9009,64
9.0866,78
9.2724,87
9.4581,75
9.6439,85
9.8297,88
10.0154,109
10.2012,83
10.3869,82
10.5727,84
10.7584,75
10.9442,82
11.1299,104
11.3157,86
11.5015,93
11.6872,84
11.8730,81
12.0587,78
12.2445,82
12.4302,80
12.6160,66
12.8018,68
12.9875,67
13.1733,83
13.3590,60
13.5448,81
13.7305,66
13.9163,71
14.1020,74
14.2878,53
14.4736,57
14.6593,63
14.8451,65
15.0308,51
15.2166,57
15.4023,61
15.5881,52
15.7738,43
15.9596,70
16.1454,58
16.3311,70
16.5169,66
16.7026,75
16.8884,64
17.0741,51
17.2599,44
17.4457,54
17.6314,62
17.8172,69
18.0029,64
18.1887,50
18.3744,66
18.5602,61
18.7459,58
18.9317,71
19.1175,66
19.3032,61
19.4890,67
19.6747,63
19.8605,57
20.0462,65
20.2320,53
20.4177,78
20.6035,65
20.7893,53
20.9750,78
21.1608,82
21.3465,194
21.5323,79
21.7180,70
21.9038,63
22.0896,78
22.2753,73
22.4611,69
22.6468,83
22.8326,73
23.0183,58
23.2041,75
23.3898,85
23.5756,74
23.7614,89
23.9471,73
24.1329,81
24.3186,84
24.5044,73
24.6901,81
24.8759,76
25.0616,80
25.2474,71
25.4332,81
25.6189,72
25.8047,68
25.9904,55
26.1762,68
26.3619,66
26.5477,77
26.7335,47
26.9192,54
27.1050,83
27.2907,100
27.4765,62
27.6622,65
27.8480,67
28.0337,59
28.2195,62
28.4053,71
28.5910,55
28.7768,61
28.9625,60
29.1483,59
29.3340,62
29.5198,57
29.7055,54
29.8913,47
30.0771,51
30.2628,57
30.4486,86
30.6343,56
30.8201,53
31.0058,51
31.1916,54
31.3774,51
31.5631,54
31.7489,66
31.9346,41
32.1204,53
32.3061,44
32.4919,56
32.6776,40
32.8634,51
33.0492,41
33.2349,42
33.4207,49
33.6064,46
33.7922,38
33.9779,46
34.1637,36
34.3494,36
34.5352,42
34.7210,43
34.9067,37
35.0925,40
35.2782,35
35.4640,44
35.6497,37
35.8355,43
36.0213,40
36.2070,40
36.3928,38
36.5785,35
36.7643,39
36.9500,31
37.1358,34
37.3215,46
37.5073,34
37.6931,20
37.8788,36
38.0646,22
38.2503,23
38.4361,34
38.6218,36
38.8076,37
38.9933,25
39.1791,30
39.3649,26
39.5506,30
39.7364,41
39.9221,24
40.1079,29
40.2936,40
40.4794,35
40.6652,43
40.8509,23
41.0367,31
41.2224,25
41.4082,28
41.5939,22
41.7797,29
41.9654,29
42.1512,19
42.3370,27
42.5227,34
42.7085,21
42.8942,24
43.0800,27
43.2657,26
43.4515,31
43.6372,35
43.8230,25
44.0088,24
44.1945,23
44.3803,18
44.5660,21
44.7518,25
44.9375,21
45.1233,27
45.3091,23
45.4948,29
45.6806,29
45.8663,24
46.0521,30
46.2378,32
46.4236,26
46.6093,21
46.7951,21
46.9809,27
47.1666,27
47.3524,25
47.5381,25
47.7239,29
47.9096,22
48.0954,30
48.2811,19
48.4669,29
48.6527,20
48.8384,22
49.0242,31
49.2099,30
49.3957,26
49.5814,23
49.7672,27
49.9530,24
50.1387,30
50.3245,25
50.5102,15
50.6960,24
50.8817,20
51.0675,14
51.2532,22
51.4390,26
51.6248,25
51.8105,30
51.9963,19
52.1820,27
52.3678,28
52.5535,27
52.7393,12
52.9250,19
53.1108,19
53.2966,10
53.4823,22
53.6681,25
53.8538,18
54.0396,24
54.2253,19
54.4111,18
54.5969,18
54.7826,21
54.9684,33
55.1541,22
55.3399,16
55.5256,20
55.7114,25
55.8971,21
56.0829,21
56.2687,21
56.4544,18
56.6402,18
56.8259,18
57.0117,17
57.1974,15
57.3832,29
57.5689,10
57.7547,22
57.9405,29
58.1262,19
58.3120,18
58.4977,14
58.6835,20
58.8692,25
59.0550,21
59.2408,18
59.4265,28
59.6123,26
59.7980,26
59.9838,23
60.0024,18