Folder: xrd_clustering/notebooks/data/xrd_data (part 22)

File: ML_20220718_55_SJD_4_LaB6-2min.uxd
; (content of file Y:\Sam\Apurva-07-20-2022\puck4\ML_20220718_55_SJD_4_LaB6-2min.raw)
_FILEVERSION = 3
_SAMPLE = ML_20220718_55_SJD_4_LaB6-2min
_+SAMPLE =
_SITE = USA
_USER = Administrator
_GONIOMETER_CODE = 20
; Goniometer : D8 theta/2theta, stage : Unknown
_ATTACHMENTS_CODE = 0
_GONIOMETER_RADIUS = 200.5
_FIXED_DIVSLIT = 0.6
_FIXED_SAMPLESLIT = 0
_SOLLER_SLITS = 2
_FIXED_DETSLIT = 9.55
_MONOCHROMATOR = 0
; Incident beam monochromator : None
_SOLLER_SLITS_2 = N
_THIN_FILM = N
_BETA_FILTER = Y
_FIXED_ANTISLIT = 5.89
_ANALYZER_CODE = 0
; Received beam analyzer : None
_DATEMEASURED = "26-Jul-2022 12:39:36"
_WL_UNIT = A
_WL1 = 1.5406
_WL2 = 1.54439
_WL3 = 1.39222
_WLRATIO = 0.5
_ANODE = Cu
_V4_INF_CREATOR = XRDWizard
_V4_INF_CREATOR_VERSION = V2.9.0.22
_V4_INF_WIZARD_VERSION = V2.9.0.22
_V4_INF_WIZARD_ADDINS = V2.9.0.22
_V4_INF_WIZARD_DOCTYPE = XRD
_V4_INF_OSUSER = McQueenLab
_V4_INF_USER = Administrator
_V4_INF_SITE = USA
_V4_INF_SAMPLEID = ML_20220718_55_SJD_4_LaB6-2min

; Data for range 1
_DRIVE = COUPLED
_STEPTIME = 5.64
_STEPSIZE = 0.0185756
_STEPMODE = C
_START = 5
_THETA = 2.5
_2THETA = 5
_KHI = 0
_PHI = 0
_X = 0
_Y = 0
_Z = 0
_DETECTOR = 5
; Detector type : Unknown
_DETECTORSLIT = unkn
_AUX1 = 0
_AUX2 = 0
_AUX3 = 0
_TIMESTARTED = 15
_TEMP_RATE = -1
_TEMP_DELAY = -1
_KV = 40
_MA = 40
_RANGE_WL = 1.5406
_3DPLANE = 0
_V4_ADDITIONALDETECTOR = 257
_V4_PSD2THETA = 3.4187
_V4_PSDCHANNEL1 = 0
_V4_PSDAPERTURE = 12.68
_V4_PSDTYPE = 5
_V4_PSDFIXED = 0
_V4_COUNTERS_MASK = 4096
_V4_DRIVES_MASK = 0
_V4_ENCODERS_MASK = 0
_2THETACOUNTS = 1
; 2THETA  PSD
   5.0000        138
   5.1858        114
   5.3715        120
   5.5573        110
   5.7430        101
   5.9288        101
   6.1145         73
   6.3003         85
   6.4860         89
   6.6718         79
   6.8576         72
   7.0433         84
   7.2291         81
   7.4148         85
   7.6006         88
   7.7863         80
   7.9721         85
   8.1579         92
   8.3436        102
   8.5294         84
   8.7151        109
   8.9009        105
   9.0866        109
   9.2724        106
   9.4581        115
   9.6439         82
   9.8297        107
  10.0154        120
  10.2012         83
  10.3869        112
  10.5727        129
  10.7584        100
  10.9442        113
  11.1299        112
  11.3157        117
  11.5015        118
  11.6872        121
  11.8730         99
  12.0587        118
  12.2445         99
  12.4302         91
  12.6160        101
  12.8018        109
  12.9875        109
  13.1733        100
  13.3590         94
  13.5448        122
  13.7305         87
  13.9163         95
  14.1020         77
  14.2878         90
  14.4736         80
  14.6593         85
  14.8451         86
  15.0308         81
  15.2166        108
  15.4023         73
  15.5881         75
  15.7738         73
  15.9596         92
  16.1454         90
  16.3311         81
  16.5169         74
  16.7026         80
  16.8884         94
  17.0741         95
  17.2599         76
  17.4457         86
  17.6314         81
  17.8172         75
  18.0029         86
  18.1887         71
  18.3744         84
  18.5602         99
  18.7459         82
  18.9317         87
  19.1175         91
  19.3032         81
  19.4890         90
  19.6747        106
  19.8605         97
  20.0462         88
  20.2320         77
  20.4177         98
  20.6035         83
  20.7893         81
  20.9750         94
  21.1608        114
  21.3465        243
  21.5323        100
  21.7180        104
  21.9038         91
  22.0896         92
  22.2753         92
  22.4611         76
  22.6468         89
  22.8326        112
  23.0183        108
  23.2041         94
  23.3898        107
  23.5756        113
  23.7614         92
  23.9471         84
  24.1329         79
  24.3186        109
  24.5044         99
  24.6901        107
  24.8759         96
  25.0616         92
  25.2474        102
  25.4332         90
  25.6189         99
  25.8047        107
  25.9904        104
  26.1762         78
  26.3619         94
  26.5477         89
  26.7335         92
  26.9192        100
  27.1050         94
  27.2907        102
  27.4765        102
  27.6622         87
  27.8480         79
  28.0337         98
  28.2195         82
  28.4053         78
  28.5910         72
  28.7768         86
  28.9625         74
  29.1483         86
  29.3340         79
  29.5198         79
  29.7055         90
  29.8913         68
  30.0771         92
  30.2628         80
  30.4486        124
  30.6343         90
  30.8201         71
  31.0058         65
  31.1916         59
  31.3774         63
  31.5631         71
  31.7489         59
  31.9346         52
  32.1204         73
  32.3061         78
  32.4919         61
  32.6776         57
  32.8634         48
  33.0492         55
  33.2349         59
  33.4207         53
  33.6064         48
  33.7922         56
  33.9779         53
  34.1637         54
  34.3494         65
  34.5352         51
  34.7210         81
  34.9067         60
  35.0925         57
  35.2782         52
  35.4640         53
  35.6497         50
  35.8355         57
  36.0213         42
  36.2070         43
  36.3928         46
  36.5785         41
  36.7643         41
  36.9500         51
  37.1358         45
  37.3215         46
  37.5073         53
  37.6931         37
  37.8788         34
  38.0646         44
  38.2503         34
  38.4361         46
  38.6218         49
  38.8076         38
  38.9933         29
  39.1791         36
  39.3649         35
  39.5506         37
  39.7364         34
  39.9221         35
  40.1079         31
  40.2936         37
  40.4794         39
  40.6652         35
  40.8509         38
  41.0367         36
  41.2224         51
  41.4082         39
  41.5939         43
  41.7797         38
  41.9654         42
  42.1512         45
  42.3370         31
  42.5227         23
  42.7085         45
  42.8942         37
  43.0800         38
  43.2657         45
  43.4515         35
  43.6372         52
  43.8230         33
  44.0088         39
  44.1945         36
  44.3803         27
  44.5660         46
  44.7518         34
  44.9375         30
  45.1233         29
  45.3091         26
  45.4948         31
  45.6806         38
  45.8663         34
  46.0521         37
  46.2378         28
  46.4236         33
  46.6093         34
  46.7951         26
  46.9809         36
  47.1666         37
  47.3524         29
  47.5381         32
  47.7239         27
  47.9096         26
  48.0954         36
  48.2811         29
  48.4669         40
  48.6527         36
  48.8384         30
  49.0242         42
  49.2099         33
  49.3957         29
  49.5814         38
  49.7672         26
  49.9530         31
  50.1387         35
  50.3245         28
  50.5102         25
  50.6960         28
  50.8817         29
  51.0675         28
  51.2532         32
  51.4390         30
  51.6248         20
  51.8105         31
  51.9963         37
  52.1820         32
  52.3678         34
  52.5535         22
  52.7393         34
  52.9250         34
  53.1108         26
  53.2966         19
  53.4823         30
  53.6681         23
  53.8538         23
  54.0396         22
  54.2253         40
  54.4111         24
  54.5969         28
  54.7826         25
  54.9684         27
  55.1541         23
  55.3399         24
  55.5256         24
  55.7114         26
  55.8971         25
  56.0829         29
  56.2687         42
  56.4544         34
  56.6402         27
  56.8259         30
  57.0117         22
  57.1974         33
  57.3832         19
  57.5689         26
  57.7547         24
  57.9405         25
  58.1262         28
  58.3120         23
  58.4977         25
  58.6835         23
  58.8692         23
  59.0550         21
  59.2408         31
  59.4265         25
  59.6123         25
  59.7980         25
  59.9838         33
  60.0024         33

File: ML_20220718_55_SJD_4_LaB6-4min.uxd
; (content of file Y:\Sam\Apurva-07-20-2022\puck4\ML_20220718_55_SJD_4_LaB6-4min.raw)
_FILEVERSION = 3
_SAMPLE = ML_20220718_55_SJD_4_LaB6-4min
_+SAMPLE =
_SITE = USA
_USER = Administrator
_GONIOMETER_CODE = 20
; Goniometer : D8 theta/2theta, stage : Unknown
_ATTACHMENTS_CODE = 0
_GONIOMETER_RADIUS = 200.5
_FIXED_DIVSLIT = 0.6
_FIXED_SAMPLESLIT = 0
_SOLLER_SLITS = 2
_FIXED_DETSLIT = 9.55
_MONOCHROMATOR = 0
; Incident beam monochromator : None
_SOLLER_SLITS_2 = N
_THIN_FILM = N
_BETA_FILTER = Y
_FIXED_ANTISLIT = 5.89
_ANALYZER_CODE = 0
; Received beam analyzer : None
_DATEMEASURED = "26-Jul-2022 14:23:10"
_WL_UNIT = A
_WL1 = 1.5406
_WL2 = 1.54439
_WL3 = 1.39222
_WLRATIO = 0.5
_ANODE = Cu
_V4_INF_CREATOR = XRDWizard
_V4_INF_CREATOR_VERSION = V2.9.0.22
_V4_INF_WIZARD_VERSION = V2.9.0.22
_V4_INF_WIZARD_ADDINS = V2.9.0.22
_V4_INF_WIZARD_DOCTYPE = XRD
_V4_INF_OSUSER = McQueenLab
_V4_INF_USER = Administrator
_V4_INF_SITE = USA
_V4_INF_SAMPLEID = ML_20220718_55_SJD_4_LaB6-4min

; Data for range 1
_DRIVE = COUPLED
_STEPTIME = 11.28
_STEPSIZE = 0.0185756
_STEPMODE = C
_START = 5
_THETA = 2.5
_2THETA = 5
_KHI = 0
_PHI = 0
_X = 0
_Y = 0
_Z = 0
_DETECTOR = 5
; Detector type : Unknown
_DETECTORSLIT = unkn
_AUX1 = 0
_AUX2 = 0
_AUX3 = 0
_TIMESTARTED = 15
_TEMP_RATE = -1
_TEMP_DELAY = -1
_KV = 40
_MA = 40
_RANGE_WL = 1.5406
_3DPLANE = 0
_V4_ADDITIONALDETECTOR = 257
_V4_PSD2THETA = 3.3876
_V4_PSDCHANNEL1 = 0
_V4_PSDAPERTURE = 12.68
_V4_PSDTYPE = 5
_V4_PSDFIXED = 0
_V4_COUNTERS_MASK = 4096
_V4_DRIVES_MASK = 0
_V4_ENCODERS_MASK = 0
_2THETACOUNTS = 1
; 2THETA  PSD
   5.0000        225
   5.1858        258
   5.3715        219
   5.5573        213
   5.7430        203
   5.9288        184
   6.1145        199
   6.3003        211
   6.4860        154
   6.6718        183
   6.8576        158
   7.0433        172
   7.2291        170
   7.4148        169
   7.6006        177
   7.7863        169
   7.9721        174
   8.1579        183
   8.3436        192
   8.5294        183
   8.7151        195
   8.9009        226
   9.0866        206
   9.2724        227
   9.4581        224
   9.6439        225
   9.8297        244
  10.0154        227
  10.2012        231
  10.3869        250
  10.5727        255
  10.7584        241
  10.9442        231
  11.1299        236
  11.3157        246
  11.5015        230
  11.6872        238
  11.8730        229
  12.0587        243
  12.2445        237
  12.4302        217
  12.6160        217
  12.8018        192
  12.9875        207
  13.1733        195
  13.3590        195
  13.5448        197
  13.7305        185
  13.9163        196
  14.1020        169
  14.2878        184
  14.4736        166
  14.6593        185
  14.8451        185
  15.0308        168
  15.2166        169
  15.4023        182
  15.5881        157
  15.7738        159
  15.9596        151
  16.1454        164
  16.3311        168
  16.5169        172
  16.7026        167
  16.8884        185
  17.0741        160
  17.2599        171
  17.4457        134
  17.6314        148
  17.8172        154
  18.0029        197
  18.1887        165
  18.3744        174
  18.5602        190
  18.7459        164
  18.9317        162
  19.1175        170
  19.3032        183
  19.4890        188
  19.6747        174
  19.8605        181
  20.0462        173
  20.2320        192
  20.4177        172
  20.6035        187
  20.7893        208
  20.9750        197
  21.1608        251
  21.3465        452
  21.5323        189
  21.7180        182
  21.9038        190
  22.0896        189
  22.2753        171
  22.4611        161
  22.6468        173
  22.8326        193
  23.0183        217
  23.2041        196
  23.3898        190
  23.5756        225
  23.7614        192
  23.9471        228
  24.1329        215
  24.3186        196
  24.5044        203
  24.6901        209
  24.8759        190
  25.0616        203
  25.2474        207
  25.4332        181
  25.6189        191
  25.8047        186
  25.9904        198
  26.1762        172
  26.3619        209
  26.5477        176
  26.7335        178
  26.9192        199
  27.1050        176
  27.2907        198
  27.4765        183
  27.6622        179
  27.8480        176
  28.0337        167
  28.2195        183
  28.4053        148
  28.5910        146
  28.7768        177
  28.9625        169
  29.1483        164
  29.3340        179
  29.5198        175
  29.7055        158
  29.8913        144
  30.0771        160
  30.2628        189
  30.4486        216
  30.6343        172
  30.8201        154
  31.0058        146
  31.1916        157
  31.3774        144
  31.5631        134
  31.7489        117
  31.9346        128
  32.1204        123
  32.3061        123
  32.4919        184
  32.6776        113
  32.8634        121
  33.0492        110
  33.2349        118
  33.4207        131
  33.6064        144
  33.7922        134
  33.9779        110
  34.1637        120
  34.3494        128
  34.5352        135
  34.7210        151
  34.9067        125
  35.0925         94
  35.2782         99
  35.4640        111
  35.6497        110
  35.8355         88
  36.0213        103
  36.2070        100
  36.3928         94
  36.5785         89
  36.7643         93
  36.9500         92
  37.1358         85
  37.3215        102
  37.5073        119
  37.6931         95
  37.8788         94
  38.0646         80
  38.2503         85
  38.4361         83
  38.6218         84
  38.8076         76
  38.9933         77
  39.1791         78
  39.3649         80
  39.5506         83
  39.7364         55
  39.9221         76
  40.1079         89
  40.2936         71
  40.4794         82
  40.6652         73
  40.8509         80
  41.0367         75
  41.2224         72
  41.4082         74
  41.5939         76
  41.7797         55
  41.9654         68
  42.1512         88
  42.3370         84
  42.5227         71
  42.7085         80
  42.8942         65
  43.0800         89
  43.2657         80
  43.4515         72
  43.6372        129
  43.8230         80
  44.0088         90
  44.1945         80
  44.3803         83
  44.5660         52
  44.7518         68
  44.9375         76
  45.1233         74
  45.3091         62
  45.4948         77
  45.6806         83
  45.8663         50
  46.0521         73
  46.2378         62
  46.4236         63
  46.6093         90
  46.7951         58
  46.9809         63
  47.1666         65
  47.3524         70
  47.5381         87
  47.7239         64
  47.9096         78
  48.0954         57
  48.2811         54
  48.4669         65
  48.6527         73
  48.8384         68
  49.0242         82
  49.2099         66
  49.3957         48
  49.5814         59
  49.7672         69
  49.9530         72
  50.1387         77
  50.3245         69
  50.5102         60
  50.6960         54
  50.8817         57
  51.0675         55
  51.2532         53
  51.4390         59
  51.6248         62
  51.8105         65
  51.9963         58
  52.1820         52
  52.3678         51
  52.5535         69
  52.7393         57
  52.9250         66
  53.1108         57
  53.2966         65
  53.4823         62
  53.6681         57
  53.8538         66
  54.0396         56
  54.2253         59
  54.4111         58
  54.5969         59
  54.7826         64
  54.9684         50
  55.1541         62
  55.3399         51
  55.5256         49
  55.7114         59
  55.8971         63
  56.0829         60
  56.2687         62
  56.4544         70
  56.6402         59
  56.8259         79
  57.0117         51
  57.1974         58
  57.3832         59
  57.5689         57
  57.7547         66
  57.9405         48
  58.1262         50
  58.3120         67
  58.4977         54
  58.6835         50
  58.8692         53
  59.0550         60
  59.2408         49
  59.4265         42
  59.6123         50
  59.7980         57
  59.9838         56
  60.0024         46

File: ML_20220718_56_SJD_4_LaB6-1min.uxd
; (content of file Y:\Sam\Apurva-07-20-2022\puck4\ML_20220718_56_SJD_4_LaB6-1min.raw)
_FILEVERSION = 3
_SAMPLE = ML_20220718_56_SJD_4_LaB6-1min
_+SAMPLE =
_SITE = USA
_USER = Administrator
_GONIOMETER_CODE = 20
; Goniometer : D8 theta/2theta, stage : Unknown
_ATTACHMENTS_CODE = 0
_GONIOMETER_RADIUS = 200.5
_FIXED_DIVSLIT = 0.6
_FIXED_SAMPLESLIT = 0
_SOLLER_SLITS = 2
_FIXED_DETSLIT = 9.55
_MONOCHROMATOR = 0
; Incident beam monochromator : None
_SOLLER_SLITS_2 = N
_THIN_FILM = N
_BETA_FILTER = Y
_FIXED_ANTISLIT = 5.89
_ANALYZER_CODE = 0
; Received beam analyzer : None
_DATEMEASURED = "26-Jul-2022 11:00:35"
_WL_UNIT = A
_WL1 = 1.5406
_WL2 = 1.54439
_WL3 = 1.39222
_WLRATIO = 0.5
_ANODE = Cu
_V4_INF_CREATOR = XRDWizard
_V4_INF_CREATOR_VERSION = V2.9.0.22
_V4_INF_WIZARD_VERSION = V2.9.0.22
_V4_INF_WIZARD_ADDINS = V2.9.0.22
_V4_INF_WIZARD_DOCTYPE = XRD
_V4_INF_OSUSER = McQueenLab
_V4_INF_USER = Administrator
_V4_INF_SITE = USA
_V4_INF_SAMPLEID = ML_20220718_56_SJD_4_LaB6-1min

; Data for range 1
_DRIVE = COUPLED
_STEPTIME = 4.23
_STEPSIZE = 0.0185756
_STEPMODE = C
_START = 5
_THETA = 2.5
_2THETA = 5
_KHI = 0
_PHI = 0
_X = 0
_Y = 0
_Z = 0
_DETECTOR = 5
; Detector type : Unknown
_DETECTORSLIT = unkn
_AUX1 = 0
_AUX2 = 0
_AUX3 = 0
_TIMESTARTED = 15
_TEMP_RATE = -1
_TEMP_DELAY = -1
_KV = 40
_MA = 40
_RANGE_WL = 1.5406
_3DPLANE = 0
_V4_ADDITIONALDETECTOR = 257
_V4_PSD2THETA = 3.3771
_V4_PSDCHANNEL1 = 0
_V4_PSDAPERTURE = 12.68
_V4_PSDTYPE = 5
_V4_PSDFIXED = 0
_V4_COUNTERS_MASK = 4096
_V4_DRIVES_MASK = 0
_V4_ENCODERS_MASK = 0
_2THETACOUNTS = 1
; 2THETA  PSD
   5.0000         99
   5.1858        102
   5.3715         81
   5.5573         89
   5.7430         92
   5.9288         66
   6.1145         73
   6.3003         74
   6.4860         66
   6.6718         61
   6.8576         70
   7.0433         63
   7.2291         77
   7.4148         61
   7.6006         65
   7.7863         66
   7.9721         63
   8.1579         67
   8.3436         87
   8.5294         72
   8.7151         64
   8.9009         82
   9.0866         65
   9.2724         92
   9.4581         80
   9.6439         95
   9.8297         80
  10.0154         98
  10.2012        100
  10.3869         70
  10.5727         91
  10.7584         93
  10.9442        104
  11.1299        117
  11.3157         97
  11.5015         80
  11.6872         91
  11.8730         83
  12.0587         69
  12.2445         71
  12.4302         85
  12.6160         84
  12.8018         78
  12.9875         79
  13.1733         64
  13.3590         85
  13.5448         85
  13.7305         71
  13.9163         71
  14.1020         63
  14.2878         78
  14.4736         54
  14.6593         59
  14.8451         71
  15.0308         57
  15.2166         58
  15.4023         65
  15.5881         53
  15.7738         61
  15.9596         71
  16.1454         50
  16.3311         60
  16.5169         56
  16.7026         60
  16.8884         57
  17.0741         44
  17.2599         63
  17.4457         65
  17.6314         63
  17.8172         66
  18.0029         59
  18.1887         64
  18.3744         52
  18.5602         67
  18.7459         79
  18.9317         59
  19.1175         55
  19.3032         70
  19.4890         65
  19.6747         64
  19.8605         68
  20.0462         59
  20.2320         82
  20.4177         59
  20.6035         65
  20.7893         80
  20.9750         91
  21.1608         80
  21.3465        187
  21.5323         85
  21.7180         69
  21.9038         68
  22.0896         70
  22.2753         61
  22.4611         64
  22.6468         73
  22.8326         71
  23.0183         79
  23.2041         66
  23.3898         95
  23.5756         70
  23.7614         72
  23.9471         66
  24.1329         54
  24.3186         93
  24.5044         58
  24.6901         61
  24.8759         79
  25.0616         80
  25.2474         62
  25.4332         86
  25.6189         86
  25.8047         79
  25.9904         60
  26.1762         73
  26.3619         79
  26.5477         58
  26.7335         74
  26.9192         81
  27.1050         86
  27.2907         54
  27.4765         60
  27.6622         73
  27.8480         59
  28.0337         69
  28.2195         67
  28.4053         51
  28.5910         62
  28.7768         65
  28.9625         50
  29.1483         58
  29.3340         59
  29.5198         68
  29.7055         62
  29.8913         56
  30.0771         51
  30.2628         45
  30.4486         85
  30.6343         60
  30.8201         48
  31.0058         55
  31.1916         49
  31.3774         50
  31.5631         49
  31.7489         42
  31.9346         52
  32.1204         58
  32.3061         45
  32.4919         50
  32.6776         46
  32.8634         40
  33.0492         44
  33.2349         29
  33.4207         50
  33.6064         53
  33.7922         38
  33.9779         44
  34.1637         36
  34.3494         39
  34.5352         38
  34.7210         63
  34.9067         45
  35.0925         32
  35.2782         51
  35.4640         29
  35.6497         36
  35.8355         31
  36.0213         38
  36.2070         37
  36.3928         33
  36.5785         36
  36.7643         40
  36.9500         21
  37.1358         26
  37.3215         27
  37.5073         36
  37.6931         33
  37.8788         38
  38.0646         32
  38.2503         31
  38.4361         29
  38.6218         31
  38.8076         30
  38.9933         29
  39.1791         30
  39.3649         43
  39.5506         23
  39.7364         37
  39.9221         24
  40.1079         29
  40.2936         25
  40.4794         17
  40.6652         24
  40.8509         18
  41.0367         29
  41.2224         25
  41.4082         19
  41.5939         29
  41.7797         26
  41.9654         26
  42.1512         33
  42.3370         20
  42.5227         20
  42.7085         29
  42.8942         28
  43.0800         21
  43.2657         16
  43.4515         32
  43.6372         46
  43.8230         33
  44.0088         25
  44.1945         27
  44.3803         28
  44.5660         28
  44.7518         22
  44.9375         28
  45.1233         20
  45.3091         23
  45.4948         18
  45.6806         35
  45.8663         18
  46.0521         28
  46.2378         25
  46.4236         23
  46.6093         20
  46.7951         19
  46.9809         24
  47.1666         22
  47.3524         27
  47.5381         23
  47.7239         21
  47.9096         15
  48.0954         16
  48.2811         26
  48.4669         31
  48.6527         21
  48.8384         26
  49.0242         27
  49.2099         20
  49.3957         20
  49.5814         28
  49.7672         16
  49.9530         20
  50.1387         25
  50.3245         23
  50.5102         22
  50.6960         23
  50.8817         22
  51.0675         25
  51.2532         32
  51.4390         19
  51.6248         20
  51.8105         19
  51.9963         13
  52.1820         20
  52.3678         31
  52.5535         21
  52.7393         19
  52.9250         19
  53.1108         26
  53.2966         17
  53.4823         17
  53.6681         16
  53.8538         21
  54.0396         19
  54.2253         19
  54.4111         24
  54.5969         23
  54.7826         21
  54.9684         27
  55.1541         19
  55.3399         26
  55.5256         20
  55.7114         24
  55.8971         17
  56.0829         20
  56.2687         23
  56.4544         26
  56.6402         15
  56.8259         16
  57.0117         20
  57.1974         24
  57.3832         13
  57.5689         20
  57.7547         23
  57.9405         23
  58.1262         20
  58.3120         17
  58.4977         18
  58.6835         24
  58.8692         27
  59.0550         16
  59.2408         25
  59.4265         16
  59.6123         24
  59.7980         12
  59.9838         29
  60.0024         20