Folder: xrd_clustering/notebooks/data/xrd_data (part 14)

File: ML_20220718_46_SJD_4_LaB6-2min.uxd
; (content of file Y:\Sam\Apurva-07-20-2022\puck4\ML_20220718_46_SJD_4_LaB6-2min.raw)
_FILEVERSION = 3
_SAMPLE = ML_20220718_46_SJD_4_LaB6-2min
_+SAMPLE =
_SITE = USA
_USER = Administrator
_GONIOMETER_CODE = 20
; Goniometer : D8 theta/2theta, stage : Unknown
_ATTACHMENTS_CODE = 0
_GONIOMETER_RADIUS = 200.5
_FIXED_DIVSLIT = 0.6
_FIXED_SAMPLESLIT = 0
_SOLLER_SLITS = 2
_FIXED_DETSLIT = 9.55
_MONOCHROMATOR = 0
; Incident beam monochromator : None
_SOLLER_SLITS_2 = N
_THIN_FILM = N
_BETA_FILTER = Y
_FIXED_ANTISLIT = 5.89
_ANALYZER_CODE = 0
; Received beam analyzer : None
_DATEMEASURED = "26-Jul-2022 12:18:04"
_WL_UNIT = A
_WL1 = 1.5406
_WL2 = 1.54439
_WL3 = 1.39222
_WLRATIO = 0.5
_ANODE = Cu
_V4_INF_CREATOR = XRDWizard
_V4_INF_CREATOR_VERSION = V2.9.0.22
_V4_INF_WIZARD_VERSION = V2.9.0.22
_V4_INF_WIZARD_ADDINS = V2.9.0.22
_V4_INF_WIZARD_DOCTYPE = XRD
_V4_INF_OSUSER = McQueenLab
_V4_INF_USER = Administrator
_V4_INF_SITE = USA
_V4_INF_SAMPLEID = ML_20220718_46_SJD_4_LaB6-2min

; Data for range 1
_DRIVE = COUPLED
_STEPTIME = 5.64
_STEPSIZE = 0.0185756
_STEPMODE = C
_START = 5
_THETA = 2.5
_2THETA = 5
_KHI = 0
_PHI = 0
_X = 0
_Y = 0
_Z = 0
_DETECTOR = 5
; Detector type : Unknown
_DETECTORSLIT = unkn
_AUX1 = 0
_AUX2 = 0
_AUX3 = 0
_TIMESTARTED = 15
_TEMP_RATE = -1
_TEMP_DELAY = -1
_KV = 40
_MA = 40
_RANGE_WL = 1.5406
_3DPLANE = 0
_V4_ADDITIONALDETECTOR = 257
_V4_PSD2THETA = 3.3706
_V4_PSDCHANNEL1 = 0
_V4_PSDAPERTURE = 12.68
_V4_PSDTYPE = 5
_V4_PSDFIXED = 0
_V4_COUNTERS_MASK = 4096
_V4_DRIVES_MASK = 0
_V4_ENCODERS_MASK = 0
_2THETACOUNTS = 1
; 2THETA  PSD
   5.0000        126
   5.1858        104
   5.3715         82
   5.5573        125
   5.7430         97
   5.9288         69
   6.1145         88
   6.3003         87
   6.4860         96
   6.6718         83
   6.8576         92
   7.0433         76
   7.2291         72
   7.4148         74
   7.6006         68
   7.7863         90
   7.9721         95
   8.1579        101
   8.3436         93
   8.5294         94
   8.7151         97
   8.9009        120
   9.0866        108
   9.2724        102
   9.4581         94
   9.6439        108
   9.8297        118
  10.0154        132
  10.2012        113
  10.3869        122
  10.5727        114
  10.7584        127
  10.9442        126
  11.1299         97
  11.3157        127
  11.5015        128
  11.6872        103
  11.8730        124
  12.0587        115
  12.2445        104
  12.4302        122
  12.6160        101
  12.8018        104
  12.9875        103
  13.1733        118
  13.3590        121
  13.5448         96
  13.7305         96
  13.9163         90
  14.1020         80
  14.2878         82
  14.4736         85
  14.6593         93
  14.8451         73
  15.0308         94
  15.2166         85
  15.4023         81
  15.5881         56
  15.7738         76
  15.9596         67
  16.1454         69
  16.3311         90
  16.5169         86
  16.7026         92
  16.8884         88
  17.0741         75
  17.2599         65
  17.4457         92
  17.6314         96
  17.8172         78
  18.0029         89
  18.1887         79
  18.3744         90
  18.5602        112
  18.7459         87
  18.9317         88
  19.1175         92
  19.3032         80
  19.4890         93
  19.6747        105
  19.8605         77
  20.0462         86
  20.2320         97
  20.4177         76
  20.6035         88
  20.7893         95
  20.9750        113
  21.1608        127
  21.3465        227
  21.5323         95
  21.7180        106
  21.9038        103
  22.0896         93
  22.2753         94
  22.4611        100
  22.6468        106
  22.8326         88
  23.0183        103
  23.2041         77
  23.3898         85
  23.5756         92
  23.7614         91
  23.9471         82
  24.1329         99
  24.3186         98
  24.5044         90
  24.6901        112
  24.8759         96
  25.0616         95
  25.2474         99
  25.4332        109
  25.6189         97
  25.8047        110
  25.9904         78
  26.1762         95
  26.3619         91
  26.5477         84
  26.7335         90
  26.9192        110
  27.1050        104
  27.2907        114
  27.4765         92
  27.6622         91
  27.8480         89
  28.0337         86
  28.2195         94
  28.4053         89
  28.5910         71
  28.7768         79
  28.9625         85
  29.1483         74
  29.3340         64
  29.5198         88
  29.7055         78
  29.8913         63
  30.0771         88
  30.2628         83
  30.4486         91
  30.6343         84
  30.8201         71
  31.0058         81
  31.1916         64
  31.3774         61
  31.5631         65
  31.7489         67
  31.9346         52
  32.1204         70
  32.3061         59
  32.4919        101
  32.6776         57
  32.8634         60
  33.0492         59
  33.2349         62
  33.4207         66
  33.6064         67
  33.7922         53
  33.9779         53
  34.1637         47
  34.3494         53
  34.5352         66
  34.7210         62
  34.9067         67
  35.0925         56
  35.2782         50
  35.4640         45
  35.6497         51
  35.8355         38
  36.0213         65
  36.2070         33
  36.3928         49
  36.5785         39
  36.7643         54
  36.9500         58
  37.1358         41
  37.3215         48
  37.5073         45
  37.6931         51
  37.8788         44
  38.0646         48
  38.2503         49
  38.4361         47
  38.6218         43
  38.8076         35
  38.9933         37
  39.1791         38
  39.3649         27
  39.5506         40
  39.7364         44
  39.9221         38
  40.1079         38
  40.2936         45
  40.4794         41
  40.6652         43
  40.8509         30
  41.0367         37
  41.2224         49
  41.4082         32
  41.5939         41
  41.7797         36
  41.9654         44
  42.1512         38
  42.3370         37
  42.5227         42
  42.7085         41
  42.8942         32
  43.0800         34
  43.2657         43
  43.4515         30
  43.6372         50
  43.8230         32
  44.0088         28
  44.1945         31
  44.3803         48
  44.5660         33
  44.7518         34
  44.9375         33
  45.1233         34
  45.3091         36
  45.4948         35
  45.6806         43
  45.8663         36
  46.0521         25
  46.2378         30
  46.4236         41
  46.6093         36
  46.7951         29
  46.9809         38
  47.1666         28
  47.3524         30
  47.5381         34
  47.7239         30
  47.9096         35
  48.0954         39
  48.2811         22
  48.4669         36
  48.6527         41
  48.8384         41
  49.0242         34
  49.2099         27
  49.3957         29
  49.5814         36
  49.7672         35
  49.9530         28
  50.1387         25
  50.3245         33
  50.5102         35
  50.6960         29
  50.8817         20
  51.0675         27
  51.2532         26
  51.4390         33
  51.6248         31
  51.8105         25
  51.9963         34
  52.1820         28
  52.3678         39
  52.5535         34
  52.7393         26
  52.9250         22
  53.1108         28
  53.2966         21
  53.4823         28
  53.6681         21
  53.8538         31
  54.0396         35
  54.2253         19
  54.4111         18
  54.5969         20
  54.7826         27
  54.9684         43
  55.1541         27
  55.3399         30
  55.5256         29
  55.7114         27
  55.8971         32
  56.0829         31
  56.2687         18
  56.4544         23
  56.6402         34
  56.8259         25
  57.0117         31
  57.1974         27
  57.3832         30
  57.5689         26
  57.7547         23
  57.9405         17
  58.1262         23
  58.3120         30
  58.4977         29
  58.6835         23
  58.8692         33
  59.0550         28
  59.2408         28
  59.4265         23
  59.6123         25
  59.7980         37
  59.9838         20
  60.0024         30

File: ML_20220718_46_SJD_4_LaB6-4min.csv
;,2THETA,
5.0000,279
5.1858,249
5.3715,272
5.5573,226
5.7430,207
5.9288,215
6.1145,171
6.3003,208
6.4860,187
6.6718,183
6.8576,186
7.0433,164
7.2291,176
7.4148,154
7.6006,162
7.7863,181
7.9721,170
8.1579,181
8.3436,174
8.5294,207
8.7151,198
8.9009,227
9.0866,237
9.2724,223
9.4581,213
9.6439,222
9.8297,220
10.0154,231
10.2012,217
10.3869,251
10.5727,253
10.7584,208
10.9442,244
11.1299,226
11.3157,250
11.5015,240
11.6872,235
11.8730,215
12.0587,209
12.2445,207
12.4302,209
12.6160,226
12.8018,219
12.9875,216
13.1733,210
13.3590,166
13.5448,180
13.7305,185
13.9163,193
14.1020,188
14.2878,185
14.4736,166
14.6593,164
14.8451,175
15.0308,142
15.2166,150
15.4023,170
15.5881,179
15.7738,144
15.9596,150
16.1454,151
16.3311,169
16.5169,168
16.7026,154
16.8884,160
17.0741,158
17.2599,162
17.4457,153
17.6314,144
17.8172,175
18.0029,146
18.1887,167
18.3744,161
18.5602,160
18.7459,183
18.9317,144
19.1175,190
19.3032,181
19.4890,169
19.6747,187
19.8605,173
20.0462,171
20.2320,202
20.4177,190
20.6035,191
20.7893,166
20.9750,175
21.1608,234
21.3465,497
21.5323,196
21.7180,203
21.9038,196
22.0896,204
22.2753,218
22.4611,205
22.6468,209
22.8326,205
23.0183,208
23.2041,196
23.3898,193
23.5756,200
23.7614,195
23.9471,177
24.1329,214
24.3186,237
24.5044,193
24.6901,185
24.8759,196
25.0616,218
25.2474,221
25.4332,223
25.6189,183
25.8047,195
25.9904,203
26.1762,206
26.3619,206
26.5477,189
26.7335,163
26.9192,170
27.1050,194
27.2907,225
27.4765,194
27.6622,165
27.8480,203
28.0337,205
28.2195,156
28.4053,169
28.5910,155
28.7768,184
28.9625,190
29.1483,162
29.3340,176
29.5198,156
29.7055,172
29.8913,163
30.0771,164
30.2628,153
30.4486,216
30.6343,150
30.8201,145
31.0058,157
31.1916,157
31.3774,139
31.5631,125
31.7489,151
31.9346,141
32.1204,123
32.3061,116
32.4919,135
32.6776,144
32.8634,145
33.0492,133
33.2349,109
33.4207,122
33.6064,134
33.7922,111
33.9779,119
34.1637,114
34.3494,102
34.5352,108
34.7210,150
34.9067,101
35.0925,120
35.2782,101
35.4640,116
35.6497,93
35.8355,88
36.0213,111
36.2070,96
36.3928,91
36.5785,90
36.7643,94
36.9500,101
37.1358,77
37.3215,92
37.5073,116
37.6931,98
37.8788,86
38.0646,78
38.2503,90
38.4361,87
38.6218,87
38.8076,91
38.9933,85
39.1791,80
39.3649,74
39.5506,80
39.7364,85
39.9221,87
40.1079,78
40.2936,84
40.4794,78
40.6652,83
40.8509,86
41.0367,79
41.2224,56
41.4082,82
41.5939,67
41.7797,70
41.9654,69
42.1512,71
42.3370,80
42.5227,77
42.7085,89
42.8942,92
43.0800,67
43.2657,77
43.4515,114
43.6372,92
43.8230,62
44.0088,58
44.1945,84
44.3803,79
44.5660,79
44.7518,77
44.9375,72
45.1233,73
45.3091,52
45.4948,60
45.6806,60
45.8663,68
46.0521,62
46.2378,67
46.4236,54
46.6093,54
46.7951,60
46.9809,78
47.1666,54
47.3524,73
47.5381,45
47.7239,65
47.9096,69
48.0954,65
48.2811,56
48.4669,70
48.6527,69
48.8384,73
49.0242,70
49.2099,55
49.3957,57
49.5814,71
49.7672,54
49.9530,55
50.1387,66
50.3245,62
50.5102,61
50.6960,59
50.8817,59
51.0675,65
51.2532,68
51.4390,78
51.6248,70
51.8105,60
51.9963,66
52.1820,60
52.3678,63
52.5535,56
52.7393,63
52.9250,56
53.1108,78
53.2966,52
53.4823,59
53.6681,53
53.8538,52
54.0396,57
54.2253,64
54.4111,40
54.5969,55
54.7826,52
54.9684,62
55.1541,51
55.3399,56
55.5256,66
55.7114,64
55.8971,42
56.0829,55
56.2687,61
56.4544,60
56.6402,53
56.8259,48
57.0117,54
57.1974,55
57.3832,57
57.5689,51
57.7547,62
57.9405,42
58.1262,46
58.3120,58
58.4977,42
58.6835,60
58.8692,57
59.0550,41
59.2408,59
59.4265,48
59.6123,42
59.7980,50
59.9838,60
60.0024,61

File: ML_20220718_47_SJD_4_LaB6-1min.csv
;,2THETA,
5.0000,88
5.1858,87
5.3715,86
5.5573,82
5.7430,68
5.9288,99
6.1145,79
6.3003,81
6.4860,66
6.6718,64
6.8576,46
7.0433,72
7.2291,50
7.4148,78
7.6006,60
7.7863,76
7.9721,52
8.1579,65
8.3436,70
8.5294,77
8.7151,74
8.9009,71
9.0866,71
9.2724,73
9.4581,68
9.6439,87
9.8297,87
10.0154,83
10.2012,74
10.3869,88
10.5727,78
10.7584,95
10.9442,92
11.1299,96
11.3157,80
11.5015,107
11.6872,91
11.8730,86
12.0587,80
12.2445,69
12.4302,63
12.6160,79
12.8018,75
12.9875,74
13.1733,85
13.3590,65
13.5448,100
13.7305,60
13.9163,65
14.1020,63
14.2878,66
14.4736,66
14.6593,84
14.8451,60
15.0308,63
15.2166,63
15.4023,64
15.5881,70
15.7738,70
15.9596,55
16.1454,68
16.3311,47
16.5169,66
16.7026,60
16.8884,55
17.0741,67
17.2599,65
17.4457,64
17.6314,65
17.8172,60
18.0029,39
18.1887,73
18.3744,73
18.5602,63
18.7459,58
18.9317,70
19.1175,58
19.3032,59
19.4890,69
19.6747,52
19.8605,72
20.0462,60
20.2320,72
20.4177,55
20.6035,66
20.7893,68
20.9750,73
21.1608,91
21.3465,199
21.5323,74
21.7180,71
21.9038,64
22.0896,67
22.2753,59
22.4611,77
22.6468,65
22.8326,74
23.0183,83
23.2041,72
23.3898,78
23.5756,58
23.7614,85
23.9471,79
24.1329,67
24.3186,78
24.5044,75
24.6901,76
24.8759,77
25.0616,78
25.2474,69
25.4332,86
25.6189,91
25.8047,70
25.9904,60
26.1762,67
26.3619,71
26.5477,66
26.7335,60
26.9192,60
27.1050,70
27.2907,78
27.4765,74
27.6622,74
27.8480,70
28.0337,67
28.2195,55
28.4053,46
28.5910,63
28.7768,74
28.9625,63
29.1483,76
29.3340,72
29.5198,56
29.7055,49
29.8913,66
30.0771,51
30.2628,70
30.4486,100
30.6343,58
30.8201,54
31.0058,54
31.1916,62
31.3774,39
31.5631,52
31.7489,44
31.9346,42
32.1204,54
32.3061,51
32.4919,64
32.6776,28
32.8634,50
33.0492,47
33.2349,46
33.4207,35
33.6064,47
33.7922,45
33.9779,40
34.1637,37
34.3494,38
34.5352,42
34.7210,53
34.9067,47
35.0925,40
35.2782,46
35.4640,30
35.6497,41
35.8355,33
36.0213,41
36.2070,37
36.3928,36
36.5785,35
36.7643,30
36.9500,27
37.1358,38
37.3215,48
37.5073,39
37.6931,31
37.8788,31
38.0646,29
38.2503,27
38.4361,34
38.6218,27
38.8076,42
38.9933,35
39.1791,31
39.3649,25
39.5506,20
39.7364,26
39.9221,30
40.1079,35
40.2936,37
40.4794,22
40.6652,32
40.8509,39
41.0367,29
41.2224,29
41.4082,28
41.5939,29
41.7797,31
41.9654,28
42.1512,26
42.3370,26
42.5227,24
42.7085,27
42.8942,17
43.0800,36
43.2657,22
43.4515,37
43.6372,42
43.8230,22
44.0088,29
44.1945,29
44.3803,29
44.5660,34
44.7518,22
44.9375,29
45.1233,29
45.3091,17
45.4948,26
45.6806,28
45.8663,21
46.0521,32
46.2378,21
46.4236,33
46.6093,16
46.7951,27
46.9809,24
47.1666,23
47.3524,17
47.5381,36
47.7239,29
47.9096,22
48.0954,29
48.2811,17
48.4669,25
48.6527,26
48.8384,14
49.0242,27
49.2099,22
49.3957,26
49.5814,20
49.7672,21
49.9530,19
50.1387,20
50.3245,20
50.5102,16
50.6960,24
50.8817,24
51.0675,23
51.2532,24
51.4390,24
51.6248,31
51.8105,19
51.9963,23
52.1820,25
52.3678,13
52.5535,9
52.7393,21
52.9250,25
53.1108,20
53.2966,21
53.4823,17
53.6681,27
53.8538,22
54.0396,28
54.2253,29
54.4111,16
54.5969,19
54.7826,15
54.9684,22
55.1541,24
55.3399,13
55.5256,16
55.7114,16
55.8971,16
56.0829,20
56.2687,23
56.4544,20
56.6402,23
56.8259,22
57.0117,17
57.1974,22
57.3832,24
57.5689,21
57.7547,20
57.9405,23
58.1262,31
58.3120,16
58.4977,14
58.6835,19
58.8692,17
59.0550,24
59.2408,20
59.4265,19
59.6123,23
59.7980,18
59.9838,17
60.0024,26

File: ML_20220718_47_SJD_4_LaB6-2min.uxd
; (content of file Y:\Sam\Apurva-07-20-2022\puck4\ML_20220718_47_SJD_4_LaB6-2min.raw)
_FILEVERSION = 3
_SAMPLE = ML_20220718_47_SJD_4_LaB6-2min
_+SAMPLE =
_SITE = USA
_USER = Administrator
_GONIOMETER_CODE = 20
; Goniometer : D8 theta/2theta, stage : Unknown
_ATTACHMENTS_CODE = 0
_GONIOMETER_RADIUS = 200.5
_FIXED_DIVSLIT = 0.6
_FIXED_SAMPLESLIT = 0
_SOLLER_SLITS = 2
_FIXED_DETSLIT = 9.55
_MONOCHROMATOR = 0
; Incident beam monochromator : None
_SOLLER_SLITS_2 = N
_THIN_FILM = N
_BETA_FILTER = Y
_FIXED_ANTISLIT = 5.89
_ANALYZER_CODE = 0
; Received beam analyzer : None
_DATEMEASURED = "26-Jul-2022 12:20:28"
_WL_UNIT = A
_WL1 = 1.5406
_WL2 = 1.54439
_WL3 = 1.39222
_WLRATIO = 0.5
_ANODE = Cu
_V4_INF_CREATOR = XRDWizard
_V4_INF_CREATOR_VERSION = V2.9.0.22
_V4_INF_WIZARD_VERSION = V2.9.0.22
_V4_INF_WIZARD_ADDINS = V2.9.0.22
_V4_INF_WIZARD_DOCTYPE = XRD
_V4_INF_OSUSER = McQueenLab
_V4_INF_USER = Administrator
_V4_INF_SITE = USA
_V4_INF_SAMPLEID = ML_20220718_47_SJD_4_LaB6-2min

; Data for range 1
_DRIVE = COUPLED
_STEPTIME = 5.64
_STEPSIZE = 0.0185756
_STEPMODE = C
_START = 5
_THETA = 2.5
_2THETA = 5
_KHI = 0
_PHI = 0
_X = 0
_Y = 0
_Z = 0
_DETECTOR = 5
; Detector type : Unknown
_DETECTORSLIT = unkn
_AUX1 = 0
_AUX2 = 0
_AUX3 = 0
_TIMESTARTED = 15
_TEMP_RATE = -1
_TEMP_DELAY = -1
_KV = 40
_MA = 40
_RANGE_WL = 1.5406
_3DPLANE = 0
_V4_ADDITIONALDETECTOR = 257
_V4_PSD2THETA = 3.4089
_V4_PSDCHANNEL1 = 0
_V4_PSDAPERTURE = 12.68
_V4_PSDTYPE = 5
_V4_PSDFIXED = 0
_V4_COUNTERS_MASK = 4096
_V4_DRIVES_MASK = 0
_V4_ENCODERS_MASK = 0
_2THETACOUNTS = 1
; 2THETA  PSD
   5.0000        140
   5.1858        110
   5.3715        109
   5.5573        105
   5.7430         93
   5.9288         95
   6.1145         92
   6.3003         98
   6.4860        107
   6.6718         98
   6.8576         77
   7.0433         82
   7.2291         85
   7.4148         73
   7.6006         81
   7.7863         96
   7.9721         90
   8.1579         76
   8.3436        105
   8.5294         90
   8.7151        114
   8.9009        102
   9.0866         93
   9.2724        111
   9.4581        108
   9.6439        116
   9.8297        115
  10.0154        127
  10.2012        120
  10.3869        113
  10.5727        100
  10.7584        118
  10.9442        113
  11.1299        120
  11.3157        113
  11.5015        102
  11.6872        133
  11.8730        116
  12.0587        106
  12.2445        111
  12.4302         91
  12.6160        105
  12.8018        108
  12.9875        104
  13.1733        100
  13.3590         94
  13.5448        108
  13.7305         99
  13.9163         86
  14.1020         87
  14.2878         73
  14.4736         80
  14.6593         86
  14.8451         80
  15.0308         87
  15.2166         83
  15.4023         82
  15.5881         90
  15.7738         80
  15.9596         78
  16.1454         72
  16.3311         85
  16.5169         72
  16.7026         79
  16.8884         80
  17.0741         96
  17.2599         94
  17.4457         75
  17.6314         97
  17.8172         69
  18.0029         77
  18.1887         91
  18.3744         62
  18.5602         72
  18.7459         95
  18.9317         73
  19.1175         69
  19.3032        103
  19.4890         79
  19.6747         94
  19.8605         74
  20.0462         91
  20.2320        106
  20.4177         80
  20.6035         86
  20.7893         98
  20.9750         96
  21.1608        109
  21.3465        222
  21.5323         91
  21.7180         82
  21.9038         91
  22.0896         93
  22.2753        117
  22.4611         93
  22.6468        104
  22.8326        102
  23.0183         90
  23.2041        113
  23.3898         78
  23.5756         85
  23.7614         90
  23.9471         92
  24.1329         97
  24.3186        125
  24.5044        110
  24.6901         96
  24.8759         98
  25.0616         94
  25.2474         90
  25.4332         92
  25.6189        106
  25.8047        108
  25.9904         98
  26.1762         86
  26.3619        109
  26.5477         84
  26.7335         89
  26.9192        104
  27.1050         97
  27.2907        109
  27.4765        101
  27.6622         99
  27.8480         91
  28.0337         76
  28.2195         82
  28.4053         95
  28.5910         79
  28.7768         90
  28.9625         79
  29.1483         65
  29.3340         78
  29.5198         88
  29.7055         83
  29.8913         85
  30.0771         84
  30.2628         80
  30.4486        131
  30.6343         74
  30.8201         65
  31.0058         63
  31.1916         85
  31.3774         70
  31.5631         68
  31.7489         80
  31.9346         64
  32.1204         55
  32.3061         62
  32.4919         79
  32.6776         70
  32.8634         62
  33.0492         80
  33.2349         65
  33.4207         71
  33.6064         61
  33.7922         60
  33.9779         47
  34.1637         61
  34.3494         58
  34.5352         53
  34.7210         78
  34.9067         67
  35.0925         60
  35.2782         62
  35.4640         50
  35.6497         49
  35.8355         52
  36.0213         45
  36.2070         55
  36.3928         35
  36.5785         34
  36.7643         55
  36.9500         51
  37.1358         47
  37.3215         49
  37.5073         59
  37.6931         40
  37.8788         48
  38.0646         38
  38.2503         33
  38.4361         47
  38.6218         39
  38.8076         35
  38.9933         35
  39.1791         41
  39.3649         48
  39.5506         38
  39.7364         42
  39.9221         40
  40.1079         34
  40.2936         41
  40.4794         32
  40.6652         34
  40.8509         38
  41.0367         37
  41.2224         38
  41.4082         42
  41.5939         40
  41.7797         43
  41.9654         25
  42.1512         33
  42.3370         35
  42.5227         39
  42.7085         32
  42.8942         33
  43.0800         39
  43.2657         43
  43.4515         34
  43.6372         51
  43.8230         33
  44.0088         39
  44.1945         43
  44.3803         28
  44.5660         33
  44.7518         33
  44.9375         36
  45.1233         34
  45.3091         46
  45.4948         35
  45.6806         35
  45.8663         39
  46.0521         30
  46.2378         38
  46.4236         45
  46.6093         28
  46.7951         30
  46.9809         38
  47.1666         40
  47.3524         34
  47.5381         33
  47.7239         27
  47.9096         28
  48.0954         25
  48.2811         25
  48.4669         30
  48.6527         35
  48.8384         32
  49.0242         39
  49.2099         32
  49.3957         33
  49.5814         29
  49.7672         30
  49.9530         28
  50.1387         36
  50.3245         33
  50.5102         25
  50.6960         30
  50.8817         39
  51.0675         37
  51.2532         32
  51.4390         38
  51.6248         23
  51.8105         36
  51.9963         27
  52.1820         25
  52.3678         27
  52.5535         29
  52.7393         31
  52.9250         33
  53.1108         24
  53.2966         28
  53.4823         33
  53.6681         26
  53.8538         20
  54.0396         35
  54.2253         32
  54.4111         38
  54.5969         21
  54.7826         32
  54.9684         28
  55.1541         19
  55.3399         23
  55.5256         28
  55.7114         30
  55.8971         29
  56.0829         29
  56.2687         23
  56.4544         29
  56.6402         27
  56.8259         31
  57.0117         26
  57.1974         18
  57.3832         32
  57.5689         27
  57.7547         34
  57.9405         30
  58.1262         31
  58.3120         28
  58.4977         26
  58.6835         21
  58.8692         26
  59.0550         32
  59.2408         29
  59.4265         26
  59.6123         29
  59.7980         25
  59.9838         36
  60.0024         30