Folder: xrd_clustering/notebooks/data/xrd_data (part 20)

File: ML_20220718_53_SJD_4_LaB6-2min.uxd
; (content of file Y:\Sam\Apurva-07-20-2022\puck4\ML_20220718_53_SJD_4_LaB6-2min.raw)
_FILEVERSION = 3
_SAMPLE = ML_20220718_53_SJD_4_LaB6-2min
_+SAMPLE =
_SITE = USA
_USER = Administrator
_GONIOMETER_CODE = 20
; Goniometer : D8 theta/2theta, stage : Unknown
_ATTACHMENTS_CODE = 0
_GONIOMETER_RADIUS = 200.5
_FIXED_DIVSLIT = 0.6
_FIXED_SAMPLESLIT = 0
_SOLLER_SLITS = 2
_FIXED_DETSLIT = 9.55
_MONOCHROMATOR = 0
; Incident beam monochromator : None
_SOLLER_SLITS_2 = N
_THIN_FILM = N
_BETA_FILTER = Y
_FIXED_ANTISLIT = 5.89
_ANALYZER_CODE = 0
; Received beam analyzer : None
_DATEMEASURED = "26-Jul-2022 12:34:49"
_WL_UNIT = A
_WL1 = 1.5406
_WL2 = 1.54439
_WL3 = 1.39222
_WLRATIO = 0.5
_ANODE = Cu
_V4_INF_CREATOR = XRDWizard
_V4_INF_CREATOR_VERSION = V2.9.0.22
_V4_INF_WIZARD_VERSION = V2.9.0.22
_V4_INF_WIZARD_ADDINS = V2.9.0.22
_V4_INF_WIZARD_DOCTYPE = XRD
_V4_INF_OSUSER = McQueenLab
_V4_INF_USER = Administrator
_V4_INF_SITE = USA
_V4_INF_SAMPLEID = ML_20220718_53_SJD_4_LaB6-2min

; Data for range 1
_DRIVE = COUPLED
_STEPTIME = 5.64
_STEPSIZE = 0.0185756
_STEPMODE = C
_START = 5
_THETA = 2.5
_2THETA = 5
_KHI = 0
_PHI = 0
_X = 0
_Y = 0
_Z = 0
_DETECTOR = 5
; Detector type : Unknown
_DETECTORSLIT = unkn
_AUX1 = 0
_AUX2 = 0
_AUX3 = 0
_TIMESTARTED = 15
_TEMP_RATE = -1
_TEMP_DELAY = -1
_KV = 40
_MA = 40
_RANGE_WL = 1.5406
_3DPLANE = 0
_V4_ADDITIONALDETECTOR = 257
_V4_PSD2THETA = 3.373
_V4_PSDCHANNEL1 = 0
_V4_PSDAPERTURE = 12.68
_V4_PSDTYPE = 5
_V4_PSDFIXED = 0
_V4_COUNTERS_MASK = 4096
_V4_DRIVES_MASK = 0
_V4_ENCODERS_MASK = 0
_2THETACOUNTS = 1
; 2THETA  PSD
   5.0000        116
   5.1858        142
   5.3715        128
   5.5573        103
   5.7430        100
   5.9288         94
   6.1145         94
   6.3003         94
   6.4860         80
   6.6718         62
   6.8576         94
   7.0433         77
   7.2291         76
   7.4148         72
   7.6006         80
   7.7863        105
   7.9721        107
   8.1579         94
   8.3436         87
   8.5294         90
   8.7151         88
   8.9009        103
   9.0866        101
   9.2724        117
   9.4581         99
   9.6439        113
   9.8297        117
  10.0154        120
  10.2012        128
  10.3869        122
  10.5727        107
  10.7584        114
  10.9442        122
  11.1299         88
  11.3157        138
  11.5015        102
  11.6872        117
  11.8730        107
  12.0587        106
  12.2445        115
  12.4302        104
  12.6160        107
  12.8018         92
  12.9875        101
  13.1733        102
  13.3590         95
  13.5448         96
  13.7305         98
  13.9163        100
  14.1020         89
  14.2878         79
  14.4736         83
  14.6593         81
  14.8451        100
  15.0308         78
  15.2166         89
  15.4023         85
  15.5881         94
  15.7738         81
  15.9596         67
  16.1454         77
  16.3311         69
  16.5169         64
  16.7026         90
  16.8884         91
  17.0741         75
  17.2599         98
  17.4457         81
  17.6314         75
  17.8172         92
  18.0029         85
  18.1887         82
  18.3744         77
  18.5602         79
  18.7459         89
  18.9317         83
  19.1175         95
  19.3032         99
  19.4890         76
  19.6747         84
  19.8605         94
  20.0462         90
  20.2320         95
  20.4177        108
  20.6035         93
  20.7893         88
  20.9750         95
  21.1608        118
  21.3465        239
  21.5323        102
  21.7180         91
  21.9038         93
  22.0896        104
  22.2753         94
  22.4611        116
  22.6468         91
  22.8326         93
  23.0183        103
  23.2041         91
  23.3898         98
  23.5756         91
  23.7614         79
  23.9471         98
  24.1329        121
  24.3186        102
  24.5044         93
  24.6901        103
  24.8759         99
  25.0616         96
  25.2474        103
  25.4332         76
  25.6189         98
  25.8047         87
  25.9904         81
  26.1762        105
  26.3619         81
  26.5477         98
  26.7335         86
  26.9192         93
  27.1050         87
  27.2907        111
  27.4765         78
  27.6622         82
  27.8480         71
  28.0337         96
  28.2195         98
  28.4053         78
  28.5910         76
  28.7768         77
  28.9625         85
  29.1483         89
  29.3340         67
  29.5198         73
  29.7055         83
  29.8913         59
  30.0771         86
  30.2628         93
  30.4486        105
  30.6343         75
  30.8201         69
  31.0058         70
  31.1916         67
  31.3774         58
  31.5631         56
  31.7489         64
  31.9346         70
  32.1204         70
  32.3061         54
  32.4919         74
  32.6776         65
  32.8634         56
  33.0492         49
  33.2349         70
  33.4207         64
  33.6064         62
  33.7922         57
  33.9779         63
  34.1637         55
  34.3494         53
  34.5352         43
  34.7210         72
  34.9067         47
  35.0925         66
  35.2782         63
  35.4640         48
  35.6497         53
  35.8355         49
  36.0213         48
  36.2070         45
  36.3928         38
  36.5785         43
  36.7643         43
  36.9500         56
  37.1358         55
  37.3215         47
  37.5073         51
  37.6931         45
  37.8788         36
  38.0646         51
  38.2503         46
  38.4361         49
  38.6218         38
  38.8076         38
  38.9933         49
  39.1791         37
  39.3649         38
  39.5506         36
  39.7364         33
  39.9221         47
  40.1079         36
  40.2936         35
  40.4794         35
  40.6652         43
  40.8509         38
  41.0367         32
  41.2224         42
  41.4082         27
  41.5939         34
  41.7797         37
  41.9654         40
  42.1512         34
  42.3370         42
  42.5227         39
  42.7085         30
  42.8942         31
  43.0800         35
  43.2657         50
  43.4515         39
  43.6372         44
  43.8230         41
  44.0088         40
  44.1945         35
  44.3803         44
  44.5660         33
  44.7518         45
  44.9375         36
  45.1233         24
  45.3091         24
  45.4948         29
  45.6806         35
  45.8663         39
  46.0521         30
  46.2378         29
  46.4236         30
  46.6093         39
  46.7951         34
  46.9809         32
  47.1666         35
  47.3524         24
  47.5381         37
  47.7239         31
  47.9096         30
  48.0954         30
  48.2811         35
  48.4669         35
  48.6527         28
  48.8384         33
  49.0242         35
  49.2099         28
  49.3957         32
  49.5814         38
  49.7672         26
  49.9530         25
  50.1387         25
  50.3245         29
  50.5102         28
  50.6960         21
  50.8817         27
  51.0675         28
  51.2532         30
  51.4390         32
  51.6248         39
  51.8105         34
  51.9963         40
  52.1820         35
  52.3678         35
  52.5535         32
  52.7393         31
  52.9250         40
  53.1108         32
  53.2966         33
  53.4823         27
  53.6681         23
  53.8538         40
  54.0396         39
  54.2253         33
  54.4111         31
  54.5969         25
  54.7826         38
  54.9684         29
  55.1541         25
  55.3399         23
  55.5256         34
  55.7114         22
  55.8971         24
  56.0829         24
  56.2687         34
  56.4544         38
  56.6402         25
  56.8259         26
  57.0117         26
  57.1974         30
  57.3832         28
  57.5689         27
  57.7547         39
  57.9405         27
  58.1262         27
  58.3120         28
  58.4977         31
  58.6835         31
  58.8692         39
  59.0550         22
  59.2408         26
  59.4265         17
  59.6123         31
  59.7980         35
  59.9838         32
  60.0024         24

File: ML_20220718_53_SJD_4_LaB6-4min.uxd
; (content of file Y:\Sam\Apurva-07-20-2022\puck4\ML_20220718_53_SJD_4_LaB6-4min.raw)
_FILEVERSION = 3
_SAMPLE = ML_20220718_53_SJD_4_LaB6-4min
_+SAMPLE =
_SITE = USA
_USER = Administrator
_GONIOMETER_CODE = 20
; Goniometer : D8 theta/2theta, stage : Unknown
_ATTACHMENTS_CODE = 0
_GONIOMETER_RADIUS = 200.5
_FIXED_DIVSLIT = 0.6
_FIXED_SAMPLESLIT = 0
_SOLLER_SLITS = 2
_FIXED_DETSLIT = 9.55
_MONOCHROMATOR = 0
; Incident beam monochromator : None
_SOLLER_SLITS_2 = N
_THIN_FILM = N
_BETA_FILTER = Y
_FIXED_ANTISLIT = 5.89
_ANALYZER_CODE = 0
; Received beam analyzer : None
_DATEMEASURED = "26-Jul-2022 14:14:13"
_WL_UNIT = A
_WL1 = 1.5406
_WL2 = 1.54439
_WL3 = 1.39222
_WLRATIO = 0.5
_ANODE = Cu
_V4_INF_CREATOR = XRDWizard
_V4_INF_CREATOR_VERSION = V2.9.0.22
_V4_INF_WIZARD_VERSION = V2.9.0.22
_V4_INF_WIZARD_ADDINS = V2.9.0.22
_V4_INF_WIZARD_DOCTYPE = XRD
_V4_INF_OSUSER = McQueenLab
_V4_INF_USER = Administrator
_V4_INF_SITE = USA
_V4_INF_SAMPLEID = ML_20220718_53_SJD_4_LaB6-4min

; Data for range 1
_DRIVE = COUPLED
_STEPTIME = 11.28
_STEPSIZE = 0.0185756
_STEPMODE = C
_START = 5
_THETA = 2.5
_2THETA = 5
_KHI = 0
_PHI = 0
_X = 0
_Y = 0
_Z = 0
_DETECTOR = 5
; Detector type : Unknown
_DETECTORSLIT = unkn
_AUX1 = 0
_AUX2 = 0
_AUX3 = 0
_TIMESTARTED = 15
_TEMP_RATE = -1
_TEMP_DELAY = -1
_KV = 40
_MA = 40
_RANGE_WL = 1.5406
_3DPLANE = 0
_V4_ADDITIONALDETECTOR = 257
_V4_PSD2THETA = 3.3902
_V4_PSDCHANNEL1 = 0
_V4_PSDAPERTURE = 12.68
_V4_PSDTYPE = 5
_V4_PSDFIXED = 0
_V4_COUNTERS_MASK = 4096
_V4_DRIVES_MASK = 0
_V4_ENCODERS_MASK = 0
_2THETACOUNTS = 1
; 2THETA  PSD
   5.0000        239
   5.1858        246
   5.3715        230
   5.5573        200
   5.7430        215
   5.9288        196
   6.1145        202
   6.3003        172
   6.4860        177
   6.6718        186
   6.8576        175
   7.0433        162
   7.2291        170
   7.4148        165
   7.6006        142
   7.7863        185
   7.9721        196
   8.1579        182
   8.3436        211
   8.5294        205
   8.7151        229
   8.9009        237
   9.0866        253
   9.2724        205
   9.4581        208
   9.6439        227
   9.8297        222
  10.0154        236
  10.2012        245
  10.3869        265
  10.5727        258
  10.7584        233
  10.9442        234
  11.1299        236
  11.3157        229
  11.5015        235
  11.6872        227
  11.8730        247
  12.0587        206
  12.2445        223
  12.4302        202
  12.6160        219
  12.8018        226
  12.9875        222
  13.1733        200
  13.3590        238
  13.5448        218
  13.7305        196
  13.9163        183
  14.1020        182
  14.2878        186
  14.4736        186
  14.6593        185
  14.8451        138
  15.0308        156
  15.2166        177
  15.4023        174
  15.5881        179
  15.7738        151
  15.9596        160
  16.1454        172
  16.3311        150
  16.5169        158
  16.7026        155
  16.8884        163
  17.0741        165
  17.2599        142
  17.4457        151
  17.6314        165
  17.8172        174
  18.0029        163
  18.1887        181
  18.3744        165
  18.5602        146
  18.7459        166
  18.9317        159
  19.1175        163
  19.3032        182
  19.4890        170
  19.6747        147
  19.8605        179
  20.0462        187
  20.2320        182
  20.4177        169
  20.6035        187
  20.7893        192
  20.9750        234
  21.1608        219
  21.3465        511
  21.5323        204
  21.7180        186
  21.9038        201
  22.0896        219
  22.2753        205
  22.4611        184
  22.6468        180
  22.8326        228
  23.0183        213
  23.2041        182
  23.3898        182
  23.5756        222
  23.7614        209
  23.9471        208
  24.1329        204
  24.3186        240
  24.5044        197
  24.6901        216
  24.8759        184
  25.0616        172
  25.2474        194
  25.4332        204
  25.6189        207
  25.8047        198
  25.9904        192
  26.1762        176
  26.3619        161
  26.5477        180
  26.7335        183
  26.9192        184
  27.1050        218
  27.2907        232
  27.4765        172
  27.6622        184
  27.8480        196
  28.0337        184
  28.2195        197
  28.4053        188
  28.5910        166
  28.7768        186
  28.9625        166
  29.1483        170
  29.3340        188
  29.5198        138
  29.7055        166
  29.8913        144
  30.0771        159
  30.2628        204
  30.4486        240
  30.6343        145
  30.8201        161
  31.0058        140
  31.1916        158
  31.3774        133
  31.5631        150
  31.7489        135
  31.9346        143
  32.1204        113
  32.3061        156
  32.4919        129
  32.6776        128
  32.8634        132
  33.0492        129
  33.2349        112
  33.4207        111
  33.6064        107
  33.7922        116
  33.9779        109
  34.1637        106
  34.3494        108
  34.5352        102
  34.7210        163
  34.9067        102
  35.0925         94
  35.2782        101
  35.4640        106
  35.6497         95
  35.8355         97
  36.0213         95
  36.2070        102
  36.3928         90
  36.5785         92
  36.7643        103
  36.9500         86
  37.1358         80
  37.3215        110
  37.5073        114
  37.6931         85
  37.8788         89
  38.0646         88
  38.2503         97
  38.4361         80
  38.6218         82
  38.8076         86
  38.9933         84
  39.1791         82
  39.3649         84
  39.5506         94
  39.7364         91
  39.9221         78
  40.1079         77
  40.2936        102
  40.4794         84
  40.6652         66
  40.8509         86
  41.0367         69
  41.2224         79
  41.4082         80
  41.5939         77
  41.7797         76
  41.9654         86
  42.1512         89
  42.3370         72
  42.5227         89
  42.7085         68
  42.8942         79
  43.0800         85
  43.2657         86
  43.4515         92
  43.6372         97
  43.8230         71
  44.0088         63
  44.1945         70
  44.3803         75
  44.5660         86
  44.7518         67
  44.9375         69
  45.1233         68
  45.3091         59
  45.4948         75
  45.6806         74
  45.8663         62
  46.0521         68
  46.2378         79
  46.4236         62
  46.6093         66
  46.7951         64
  46.9809         61
  47.1666         63
  47.3524         42
  47.5381         64
  47.7239         55
  47.9096         50
  48.0954         62
  48.2811         69
  48.4669         61
  48.6527         77
  48.8384         70
  49.0242         73
  49.2099         75
  49.3957         68
  49.5814         78
  49.7672         54
  49.9530         70
  50.1387         63
  50.3245         71
  50.5102         57
  50.6960         56
  50.8817         61
  51.0675         66
  51.2532         61
  51.4390         71
  51.6248         72
  51.8105         69
  51.9963         64
  52.1820         45
  52.3678         60
  52.5535         45
  52.7393         59
  52.9250         55
  53.1108         60
  53.2966         66
  53.4823         58
  53.6681         59
  53.8538         59
  54.0396         77
  54.2253         67
  54.4111         66
  54.5969         59
  54.7826         51
  54.9684         63
  55.1541         60
  55.3399         36
  55.5256         60
  55.7114         40
  55.8971         52
  56.0829         71
  56.2687         68
  56.4544         65
  56.6402         61
  56.8259         50
  57.0117         66
  57.1974         48
  57.3832         63
  57.5689         58
  57.7547         71
  57.9405         50
  58.1262         52
  58.3120         56
  58.4977         63
  58.6835         72
  58.8692         60
  59.0550         51
  59.2408         56
  59.4265         58
  59.6123         55
  59.7980         56
  59.9838         58
  60.0024         38

File: ML_20220718_54_SJD_4_LaB6-1min.uxd
; (content of file Y:\Sam\Apurva-07-20-2022\puck4\ML_20220718_54_SJD_4_LaB6-1min.raw)
_FILEVERSION = 3
_SAMPLE = ML_20220718_54_SJD_4_LaB6-1min
_+SAMPLE =
_SITE = USA
_USER = Administrator
_GONIOMETER_CODE = 20
; Goniometer : D8 theta/2theta, stage : Unknown
_ATTACHMENTS_CODE = 0
_GONIOMETER_RADIUS = 200.5
_FIXED_DIVSLIT = 0.6
_FIXED_SAMPLESLIT = 0
_SOLLER_SLITS = 2
_FIXED_DETSLIT = 9.55
_MONOCHROMATOR = 0
; Incident beam monochromator : None
_SOLLER_SLITS_2 = N
_THIN_FILM = N
_BETA_FILTER = Y
_FIXED_ANTISLIT = 5.89
_ANALYZER_CODE = 0
; Received beam analyzer : None
_DATEMEASURED = "26-Jul-2022 10:56:51"
_WL_UNIT = A
_WL1 = 1.5406
_WL2 = 1.54439
_WL3 = 1.39222
_WLRATIO = 0.5
_ANODE = Cu
_V4_INF_CREATOR = XRDWizard
_V4_INF_CREATOR_VERSION = V2.9.0.22
_V4_INF_WIZARD_VERSION = V2.9.0.22
_V4_INF_WIZARD_ADDINS = V2.9.0.22
_V4_INF_WIZARD_DOCTYPE = XRD
_V4_INF_OSUSER = McQueenLab
_V4_INF_USER = Administrator
_V4_INF_SITE = USA
_V4_INF_SAMPLEID = ML_20220718_54_SJD_4_LaB6-1min

; Data for range 1
_DRIVE = COUPLED
_STEPTIME = 4.23
_STEPSIZE = 0.0185756
_STEPMODE = C
_START = 5
_THETA = 2.5
_2THETA = 5
_KHI = 0
_PHI = 0
_X = 0
_Y = 0
_Z = 0
_DETECTOR = 5
; Detector type : Unknown
_DETECTORSLIT = unkn
_AUX1 = 0
_AUX2 = 0
_AUX3 = 0
_TIMESTARTED = 15
_TEMP_RATE = -1
_TEMP_DELAY = -1
_KV = 40
_MA = 40
_RANGE_WL = 1.5406
_3DPLANE = 0
_V4_ADDITIONALDETECTOR = 257
_V4_PSD2THETA = 3.3736
_V4_PSDCHANNEL1 = 0
_V4_PSDAPERTURE = 12.68
_V4_PSDTYPE = 5
_V4_PSDFIXED = 0
_V4_COUNTERS_MASK = 4096
_V4_DRIVES_MASK = 0
_V4_ENCODERS_MASK = 0
_2THETACOUNTS = 1
; 2THETA  PSD
   5.0000         87
   5.1858         95
   5.3715         78
   5.5573         75
   5.7430         71
   5.9288         64
   6.1145         65
   6.3003         58
   6.4860         56
   6.6718         63
   6.8576         59
   7.0433         46
   7.2291         47
   7.4148         56
   7.6006         60
   7.7863         70
   7.9721         62
   8.1579         74
   8.3436         66
   8.5294         73
   8.7151         60
   8.9009         71
   9.0866         63
   9.2724         84
   9.4581         63
   9.6439         88
   9.8297         84
  10.0154         84
  10.2012        104
  10.3869         98
  10.5727         77
  10.7584         84
  10.9442         82
  11.1299         69
  11.3157         93
  11.5015         85
  11.6872         87
  11.8730         69
  12.0587         89
  12.2445         85
  12.4302         79
  12.6160         74
  12.8018         64
  12.9875         76
  13.1733         79
  13.3590         70
  13.5448         66
  13.7305         67
  13.9163         68
  14.1020         65
  14.2878         59
  14.4736         55
  14.6593         66
  14.8451         64
  15.0308         45
  15.2166         54
  15.4023         56
  15.5881         65
  15.7738         57
  15.9596         73
  16.1454         84
  16.3311         56
  16.5169         61
  16.7026         51
  16.8884         57
  17.0741         59
  17.2599         53
  17.4457         50
  17.6314         54
  17.8172         54
  18.0029         47
  18.1887         65
  18.3744         66
  18.5602         49
  18.7459         59
  18.9317         58
  19.1175         57
  19.3032         52
  19.4890         63
  19.6747         66
  19.8605         77
  20.0462         59
  20.2320         75
  20.4177         68
  20.6035         57
  20.7893         68
  20.9750         67
  21.1608         98
  21.3465        162
  21.5323         60
  21.7180         73
  21.9038         81
  22.0896         82
  22.2753         70
  22.4611         55
  22.6468         55
  22.8326         77
  23.0183         68
  23.2041         69
  23.3898         70
  23.5756         81
  23.7614         66
  23.9471         66
  24.1329         68
  24.3186         90
  24.5044         72
  24.6901         82
  24.8759         74
  25.0616         77
  25.2474         76
  25.4332         55
  25.6189         69
  25.8047         76
  25.9904         63
  26.1762         63
  26.3619         78
  26.5477         74
  26.7335         73
  26.9192         86
  27.1050         70
  27.2907         72
  27.4765         68
  27.6622         58
  27.8480         51
  28.0337         56
  28.2195         66
  28.4053         47
  28.5910         64
  28.7768         69
  28.9625         53
  29.1483         49
  29.3340         58
  29.5198         46
  29.7055         69
  29.8913         57
  30.0771         47
  30.2628         63
  30.4486         93
  30.6343         56
  30.8201         43
  31.0058         66
  31.1916         49
  31.3774         58
  31.5631         54
  31.7489         52
  31.9346         57
  32.1204         44
  32.3061         55
  32.4919         47
  32.6776         51
  32.8634         62
  33.0492         44
  33.2349         49
  33.4207         33
  33.6064         38
  33.7922         42
  33.9779         45
  34.1637         40
  34.3494         55
  34.5352         48
  34.7210         63
  34.9067         45
  35.0925         36
  35.2782         32
  35.4640         39
  35.6497         39
  35.8355         36
  36.0213         50
  36.2070         34
  36.3928         39
  36.5785         45
  36.7643         36
  36.9500         35
  37.1358         31
  37.3215         28
  37.5073         39
  37.6931         32
  37.8788         30
  38.0646         33
  38.2503         49
  38.4361         28
  38.6218         30
  38.8076         28
  38.9933         32
  39.1791         36
  39.3649         25
  39.5506         29
  39.7364         30
  39.9221         32
  40.1079         30
  40.2936         31
  40.4794         18
  40.6652         38
  40.8509         24
  41.0367         23
  41.2224         35
  41.4082         29
  41.5939         32
  41.7797         34
  41.9654         21
  42.1512         19
  42.3370         23
  42.5227         29
  42.7085         22
  42.8942         30
  43.0800         22
  43.2657         37
  43.4515         33
  43.6372         35
  43.8230         30
  44.0088         28
  44.1945         22
  44.3803         31
  44.5660         32
  44.7518         33
  44.9375         26
  45.1233         28
  45.3091         33
  45.4948         21
  45.6806         21
  45.8663         29
  46.0521         25
  46.2378         24
  46.4236         22
  46.6093         30
  46.7951         31
  46.9809         22
  47.1666         20
  47.3524         28
  47.5381         17
  47.7239         25
  47.9096         26
  48.0954         24
  48.2811         26
  48.4669         25
  48.6527         25
  48.8384         26
  49.0242         29
  49.2099         29
  49.3957         32
  49.5814         15
  49.7672         28
  49.9530         21
  50.1387         36
  50.3245         28
  50.5102         21
  50.6960         25
  50.8817         16
  51.0675         33
  51.2532         25
  51.4390         18
  51.6248         22
  51.8105         15
  51.9963         26
  52.1820         17
  52.3678         24
  52.5535         12
  52.7393         21
  52.9250         19
  53.1108         30
  53.2966         23
  53.4823         18
  53.6681         29
  53.8538         19
  54.0396         34
  54.2253         21
  54.4111         24
  54.5969         22
  54.7826         24
  54.9684         25
  55.1541         24
  55.3399         23
  55.5256         10
  55.7114         14
  55.8971         18
  56.0829         15
  56.2687         27
  56.4544         22
  56.6402         20
  56.8259         25
  57.0117         17
  57.1974         25
  57.3832         15
  57.5689         27
  57.7547         25
  57.9405         28
  58.1262         17
  58.3120         20
  58.4977         14
  58.6835         28
  58.8692         24
  59.0550         24
  59.2408         16
  59.4265         18
  59.6123         28
  59.7980         21
  59.9838         22
  60.0024         21