Folder: xrd_clustering/notebooks/data/xrd_data (part 27)

File: ML_20220720_2_SJD_4_LaB6-4min.uxd
; (content of file Y:\Sam\Apurva-07-20-2022\puck2\ML_20220720_2_SJD_0_LaB6-4min.raw)
_FILEVERSION = 3
_SAMPLE = ML_20220720_2_SJD_0_LaB6-4min
_+SAMPLE =
_SITE = USA
_USER = Administrator
_GONIOMETER_CODE = 20
; Goniometer : D8 theta/2theta, stage : Unknown
_ATTACHMENTS_CODE = 0
_GONIOMETER_RADIUS = 200.5
_FIXED_DIVSLIT = 0.6
_FIXED_SAMPLESLIT = 0
_SOLLER_SLITS = 2
_FIXED_DETSLIT = 9.55
_MONOCHROMATOR = 0
; Incident beam monochromator : None
_SOLLER_SLITS_2 = N
_THIN_FILM = N
_BETA_FILTER = Y
_FIXED_ANTISLIT = 5.89
_ANALYZER_CODE = 0
; Received beam analyzer : None
_DATEMEASURED = "25-Jul-2022 17:29:07"
_WL_UNIT = A
_WL1 = 1.5406
_WL2 = 1.54439
_WL3 = 1.39222
_WLRATIO = 0.5
_ANODE = Cu
_V4_INF_CREATOR = XRDWizard
_V4_INF_CREATOR_VERSION = V2.9.0.22
_V4_INF_WIZARD_VERSION = V2.9.0.22
_V4_INF_WIZARD_ADDINS = V2.9.0.22
_V4_INF_WIZARD_DOCTYPE = XRD
_V4_INF_OSUSER = McQueenLab
_V4_INF_USER = Administrator
_V4_INF_SITE = USA
_V4_INF_SAMPLEID = ML_20220720_2_SJD_0_LaB6-4min

; Data for range 1
_DRIVE = COUPLED
_STEPTIME = 11.28
_STEPSIZE = 0.0185756
_STEPMODE = C
_START = 5
_THETA = 2.5
_2THETA = 5
_KHI = 0
_PHI = 0
_X = 0
_Y = 0
_Z = 0
_DETECTOR = 5
; Detector type : Unknown
_DETECTORSLIT = unkn
_AUX1 = 0
_AUX2 = 0
_AUX3 = 0
_TIMESTARTED = 15
_TEMP_RATE = -1
_TEMP_DELAY = -1
_KV = 40
_MA = 40
_RANGE_WL = 1.5406
_3DPLANE = 0
_V4_ADDITIONALDETECTOR = 257
_V4_PSD2THETA = 3.3661
_V4_PSDCHANNEL1 = 0
_V4_PSDAPERTURE = 12.68
_V4_PSDTYPE = 5
_V4_PSDFIXED = 0
_V4_COUNTERS_MASK = 4096
_V4_DRIVES_MASK = 0
_V4_ENCODERS_MASK = 0
_2THETACOUNTS = 1
; 2THETA  PSD
   5.0000        259
   5.1858        268
   5.3715        269
   5.5573        224
   5.7430        209
   5.9288        192
   6.1145        184
   6.3003        161
   6.4860        168
   6.6718        166
   6.8576        165
   7.0433        142
   7.2291        152
   7.4148        182
   7.6006        177
   7.7863        166
   7.9721        163
   8.1579        207
   8.3436        189
   8.5294        216
   8.7151        228
   8.9009        222
   9.0866        208
   9.2724        213
   9.4581        230
   9.6439        220
   9.8297        219
  10.0154        243
  10.2012        243
  10.3869        252
  10.5727        244
  10.7584        241
  10.9442        232
  11.1299        239
  11.3157        257
  11.5015        227
  11.6872        251
  11.8730        228
  12.0587        224
  12.2445        228
  12.4302        214
  12.6160        244
  12.8018        222
  12.9875        208
  13.1733        211
  13.3590        195
  13.5448        181
  13.7305        178
  13.9163        181
  14.1020        196
  14.2878        183
  14.4736        195
  14.6593        155
  14.8451        171
  15.0308        155
  15.2166        181
  15.4023        171
  15.5881        181
  15.7738        154
  15.9596        166
  16.1454        170
  16.3311        173
  16.5169        151
  16.7026        168
  16.8884        165
  17.0741        178
  17.2599        169
  17.4457        162
  17.6314        156
  17.8172        190
  18.0029        152
  18.1887        157
  18.3744        178
  18.5602        188
  18.7459        162
  18.9317        178
  19.1175        169
  19.3032        171
  19.4890        189
  19.6747        164
  19.8605        166
  20.0462        176
  20.2320        174
  20.4177        186
  20.6035        150
  20.7893        208
  20.9750        205
  21.1608        216
  21.3465        496
  21.5323        186
  21.7180        189
  21.9038        191
  22.0896        181
  22.2753        192
  22.4611        223
  22.6468        227
  22.8326        217
  23.0183        204
  23.2041        228
  23.3898        197
  23.5756        206
  23.7614        187
  23.9471        190
  24.1329        224
  24.3186        233
  24.5044        170
  24.6901        202
  24.8759        199
  25.0616        195
  25.2474        190
  25.4332        216
  25.6189        223
  25.8047        200
  25.9904        176
  26.1762        184
  26.3619        199
  26.5477        211
  26.7335        192
  26.9192        161
  27.1050        192
  27.2907        210
  27.4765        194
  27.6622        196
  27.8480        185
  28.0337        170
  28.2195        151
  28.4053        155
  28.5910        147
  28.7768        177
  28.9625        165
  29.1483        166
  29.3340        176
  29.5198        149
  29.7055        155
  29.8913        149
  30.0771        145
  30.2628        160
  30.4486        247
  30.6343        144
  30.8201        172
  31.0058        144
  31.1916        144
  31.3774        167
  31.5631        138
  31.7489        114
  31.9346        114
  32.1204        121
  32.3061        140
  32.4919        157
  32.6776        138
  32.8634        152
  33.0492        123
  33.2349        113
  33.4207        113
  33.6064        122
  33.7922        106
  33.9779        104
  34.1637        126
  34.3494        126
  34.5352        122
  34.7210        157
  34.9067        124
  35.0925        112
  35.2782        102
  35.4640         87
  35.6497        105
  35.8355         99
  36.0213         97
  36.2070         89
  36.3928         93
  36.5785         92
  36.7643        103
  36.9500         89
  37.1358        109
  37.3215         91
  37.5073        107
  37.6931        103
  37.8788        103
  38.0646         83
  38.2503         93
  38.4361         75
  38.6218         85
  38.8076         82
  38.9933         97
  39.1791         77
  39.3649         82
  39.5506        105
  39.7364         80
  39.9221         95
  40.1079         85
  40.2936         66
  40.4794         90
  40.6652         81
  40.8509         81
  41.0367         85
  41.2224         75
  41.4082         75
  41.5939         63
  41.7797         71
  41.9654         92
  42.1512         81
  42.3370         67
  42.5227         81
  42.7085         89
  42.8942         91
  43.0800         65
  43.2657        106
  43.4515         79
  43.6372         99
  43.8230         65
  44.0088         51
  44.1945         85
  44.3803         61
  44.5660         85
  44.7518         87
  44.9375         93
  45.1233         61
  45.3091         72
  45.4948         55
  45.6806         56
  45.8663         70
  46.0521         71
  46.2378         71
  46.4236         77
  46.6093         57
  46.7951         74
  46.9809         68
  47.1666         80
  47.3524         62
  47.5381         74
  47.7239         55
  47.9096         59
  48.0954         61
  48.2811         55
  48.4669         62
  48.6527         75
  48.8384         66
  49.0242         75
  49.2099         76
  49.3957         59
  49.5814         71
  49.7672         54
  49.9530         70
  50.1387         73
  50.3245         66
  50.5102         65
  50.6960         59
  50.8817         71
  51.0675         70
  51.2532         75
  51.4390         77
  51.6248         69
  51.8105         57
  51.9963         64
  52.1820         59
  52.3678         63
  52.5535         48
  52.7393         53
  52.9250         64
  53.1108         64
  53.2966         50
  53.4823         39
  53.6681         57
  53.8538         59
  54.0396         50
  54.2253         52
  54.4111         52
  54.5969         59
  54.7826         71
  54.9684         55
  55.1541         55
  55.3399         57
  55.5256         57
  55.7114         51
  55.8971         60
  56.0829         61
  56.2687         52
  56.4544         63
  56.6402         62
  56.8259         47
  57.0117         54
  57.1974         50
  57.3832         55
  57.5689         61
  57.7547         61
  57.9405         59
  58.1262         48
  58.3120         45
  58.4977         64
  58.6835         55
  58.8692         70
  59.0550         47
  59.2408         59
  59.4265         43
  59.6123         44
  59.7980         62
  59.9838         54
  60.0024         60

File: ML_20220720_3_SJD_4_LaB6-1min.csv
;,2THETA,
5.0000,98
5.1858,78
5.3715,76
5.5573,74
5.7430,70
5.9288,73
6.1145,59
6.3003,65
6.4860,71
6.6718,51
6.8576,65
7.0433,60
7.2291,50
7.4148,57
7.6006,52
7.7863,68
7.9721,64
8.1579,63
8.3436,68
8.5294,93
8.7151,63
8.9009,82
9.0866,73
9.2724,77
9.4581,80
9.6439,87
9.8297,65
10.0154,69
10.2012,80
10.3869,89
10.5727,82
10.7584,95
10.9442,74
11.1299,87
11.3157,99
11.5015,83
11.6872,99
11.8730,84
12.0587,65
12.2445,74
12.4302,71
12.6160,88
12.8018,78
12.9875,69
13.1733,78
13.3590,70
13.5448,56
13.7305,56
13.9163,76
14.1020,78
14.2878,75
14.4736,74
14.6593,49
14.8451,64
15.0308,62
15.2166,73
15.4023,65
15.5881,75
15.7738,56
15.9596,56
16.1454,50
16.3311,54
16.5169,52
16.7026,58
16.8884,42
17.0741,65
17.2599,60
17.4457,65
17.6314,67
17.8172,49
18.0029,51
18.1887,67
18.3744,69
18.5602,51
18.7459,69
18.9317,73
19.1175,71
19.3032,50
19.4890,73
19.6747,62
19.8605,74
20.0462,65
20.2320,64
20.4177,62
20.6035,80
20.7893,74
20.9750,69
21.1608,105
21.3465,190
21.5323,66
21.7180,77
21.9038,66
22.0896,73
22.2753,82
22.4611,78
22.6468,74
22.8326,79
23.0183,80
23.2041,73
23.3898,98
23.5756,76
23.7614,66
23.9471,82
24.1329,64
24.3186,77
24.5044,59
24.6901,83
24.8759,62
25.0616,79
25.2474,56
25.4332,63
25.6189,74
25.8047,73
25.9904,80
26.1762,73
26.3619,59
26.5477,66
26.7335,71
26.9192,65
27.1050,86
27.2907,92
27.4765,70
27.6622,67
27.8480,54
28.0337,66
28.2195,60
28.4053,58
28.5910,66
28.7768,50
28.9625,51
29.1483,46
29.3340,62
29.5198,45
29.7055,54
29.8913,54
30.0771,44
30.2628,44
30.4486,97
30.6343,52
30.8201,71
31.0058,51
31.1916,57
31.3774,48
31.5631,43
31.7489,59
31.9346,53
32.1204,41
32.3061,35
32.4919,40
32.6776,47
32.8634,43
33.0492,52
33.2349,45
33.4207,42
33.6064,42
33.7922,51
33.9779,41
34.1637,53
34.3494,42
34.5352,54
34.7210,60
34.9067,42
35.0925,36
35.2782,31
35.4640,38
35.6497,44
35.8355,34
36.0213,38
36.2070,28
36.3928,33
36.5785,35
36.7643,23
36.9500,36
37.1358,37
37.3215,31
37.5073,44
37.6931,39
37.8788,38
38.0646,42
38.2503,22
38.4361,35
38.6218,34
38.8076,25
38.9933,30
39.1791,28
39.3649,23
39.5506,24
39.7364,30
39.9221,21
40.1079,27
40.2936,39
40.4794,29
40.6652,27
40.8509,27
41.0367,34
41.2224,32
41.4082,38
41.5939,30
41.7797,19
41.9654,23
42.1512,23
42.3370,26
42.5227,25
42.7085,26
42.8942,29
43.0800,27
43.2657,31
43.4515,36
43.6372,26
43.8230,28
44.0088,19
44.1945,28
44.3803,31
44.5660,20
44.7518,32
44.9375,14
45.1233,27
45.3091,27
45.4948,30
45.6806,23
45.8663,19
46.0521,15
46.2378,26
46.4236,28
46.6093,14
46.7951,29
46.9809,26
47.1666,25
47.3524,25
47.5381,25
47.7239,21
47.9096,33
48.0954,32
48.2811,29
48.4669,22
48.6527,26
48.8384,26
49.0242,27
49.2099,27
49.3957,24
49.5814,20
49.7672,26
49.9530,27
50.1387,20
50.3245,29
50.5102,30
50.6960,19
50.8817,17
51.0675,15
51.2532,22
51.4390,32
51.6248,26
51.8105,29
51.9963,24
52.1820,13
52.3678,23
52.5535,18
52.7393,25
52.9250,21
53.1108,26
53.2966,23
53.4823,14
53.6681,26
53.8538,20
54.0396,18
54.2253,26
54.4111,17
54.5969,19
54.7826,23
54.9684,19
55.1541,30
55.3399,15
55.5256,19
55.7114,16
55.8971,30
56.0829,22
56.2687,21
56.4544,18
56.6402,22
56.8259,18
57.0117,22
57.1974,20
57.3832,21
57.5689,17
57.7547,22
57.9405,28
58.1262,18
58.3120,16
58.4977,18
58.6835,16
58.8692,15
59.0550,12
59.2408,23
59.4265,16
59.6123,17
59.7980,20
59.9838,12
60.0024,21

File: ML_20220720_3_SJD_4_LaB6-2min.uxd
; (content of file Y:\Sam\Apurva-07-20-2022\puck4\ML_20220718_3_SJD_0_LaB6-2min.raw)
_FILEVERSION = 3
_SAMPLE = ML_20220718_3_SJD_0_LaB6-2mi
_+SAMPLE =
_SITE = USA
_USER = Administrator
_GONIOMETER_CODE = 20
; Goniometer : D8 theta/2theta, stage : Unknown
_ATTACHMENTS_CODE = 0
_GONIOMETER_RADIUS = 200.5
_FIXED_DIVSLIT = 0.6
_FIXED_SAMPLESLIT = 0
_SOLLER_SLITS = 2
_FIXED_DETSLIT = 9.55
_MONOCHROMATOR = 0
; Incident beam monochromator : None
_SOLLER_SLITS_2 = N
_THIN_FILM = N
_BETA_FILTER = Y
_FIXED_ANTISLIT = 5.89
_ANALYZER_CODE = 0
; Received beam analyzer : None
_DATEMEASURED = "21-Jul-2022 02:53:54"
_WL_UNIT = A
_WL1 = 1.5406
_WL2 = 1.54439
_WL3 = 1.39222
_WLRATIO = 0.5
_ANODE = Cu
_V4_INF_CREATOR = XRDWizard
_V4_INF_CREATOR_VERSION = V2.9.0.22
_V4_INF_WIZARD_VERSION = V2.9.0.22
_V4_INF_WIZARD_ADDINS = V2.9.0.22
_V4_INF_WIZARD_DOCTYPE = XRD
_V4_INF_OSUSER = McQueenLab
_V4_INF_USER = Administrator
_V4_INF_SITE = USA
_V4_INF_SAMPLEID = ML_20220718_3_SJD_0_LaB6-2mi

; Data for range 1
_DRIVE = COUPLED
_STEPTIME = 5.64
_STEPSIZE = 0.0185756
_STEPMODE = C
_START = 5
_THETA = 2.5
_2THETA = 5
_KHI = 0
_PHI = 0
_X = 0
_Y = 0
_Z = 0
_DETECTOR = 5
; Detector type : Unknown
_DETECTORSLIT = unkn
_AUX1 = 0
_AUX2 = 0
_AUX3 = 0
_TIMESTARTED = 15
_TEMP_RATE = -1
_TEMP_DELAY = -1
_KV = 40
_MA = 40
_RANGE_WL = 1.5406
_3DPLANE = 0
_V4_ADDITIONALDETECTOR = 257
_V4_PSD2THETA = 3.4139
_V4_PSDCHANNEL1 = 0
_V4_PSDAPERTURE = 12.68
_V4_PSDTYPE = 5
_V4_PSDFIXED = 0
_V4_COUNTERS_MASK = 4096
_V4_DRIVES_MASK = 0
_V4_ENCODERS_MASK = 0
_2THETACOUNTS = 1
; 2THETA  PSD
   5.0000        127
   5.1858        113
   5.3715        131
   5.5573        107
   5.7430        107
   5.9288        123
   6.1145         94
   6.3003         98
   6.4860         86
   6.6718         97
   6.8576         83
   7.0433         72
   7.2291         76
   7.4148         90
   7.6006         97
   7.7863         77
   7.9721        110
   8.1579         89
   8.3436         75
   8.5294        109
   8.7151        100
   8.9009         92
   9.0866         97
   9.2724        107
   9.4581         96
   9.6439        100
   9.8297        114
  10.0154        116
  10.2012        100
  10.3869         96
  10.5727        111
  10.7584        134
  10.9442        123
  11.1299        110
  11.3157        120
  11.5015        120
  11.6872        119
  11.8730        114
  12.0587        110
  12.2445        103
  12.4302        108
  12.6160        101
  12.8018        111
  12.9875         95
  13.1733         93
  13.3590         89
  13.5448         88
  13.7305         90
  13.9163         90
  14.1020         86
  14.2878         89
  14.4736         70
  14.6593         92
  14.8451         71
  15.0308         99
  15.2166         83
  15.4023         81
  15.5881         68
  15.7738         72
  15.9596         71
  16.1454         91
  16.3311         85
  16.5169         90
  16.7026         56
  16.8884         75
  17.0741         77
  17.2599         70
  17.4457         83
  17.6314         80
  17.8172         84
  18.0029         82
  18.1887         74
  18.3744         82
  18.5602         69
  18.7459         90
  18.9317         90
  19.1175         76
  19.3032         85
  19.4890         92
  19.6747         88
  19.8605         77
  20.0462         74
  20.2320         93
  20.4177         80
  20.6035         80
  20.7893        102
  20.9750         91
  21.1608        129
  21.3465        271
  21.5323         88
  21.7180        111
  21.9038        102
  22.0896         98
  22.2753        105
  22.4611         86
  22.6468         81
  22.8326        104
  23.0183        120
  23.2041        103
  23.3898        109
  23.5756        110
  23.7614        106
  23.9471         95
  24.1329         97
  24.3186        102
  24.5044        109
  24.6901        100
  24.8759        106
  25.0616         91
  25.2474         73
  25.4332         88
  25.6189         92
  25.8047         88
  25.9904         88
  26.1762        106
  26.3619         96
  26.5477         87
  26.7335        120
  26.9192         87
  27.1050         92
  27.2907        114
  27.4765         84
  27.6622         85
  27.8480         80
  28.0337        101
  28.2195         72
  28.4053         92
  28.5910         72
  28.7768         62
  28.9625         75
  29.1483         79
  29.3340         85
  29.5198         73
  29.7055         64
  29.8913         78
  30.0771         82
  30.2628         83
  30.4486        116
  30.6343         67
  30.8201         76
  31.0058         62
  31.1916         72
  31.3774         67
  31.5631         61
  31.7489         61
  31.9346         72
  32.1204         64
  32.3061         57
  32.4919         73
  32.6776         62
  32.8634         61
  33.0492         66
  33.2349         70
  33.4207         62
  33.6064         54
  33.7922         53
  33.9779         48
  34.1637         67
  34.3494         65
  34.5352         67
  34.7210         82
  34.9067         66
  35.0925         60
  35.2782         57
  35.4640         47
  35.6497         45
  35.8355         51
  36.0213         44
  36.2070         37
  36.3928         56
  36.5785         36
  36.7643         53
  36.9500         42
  37.1358         57
  37.3215         39
  37.5073         66
  37.6931         40
  37.8788         33
  38.0646         43
  38.2503         39
  38.4361         37
  38.6218         38
  38.8076         46
  38.9933         38
  39.1791         40
  39.3649         24
  39.5506         33
  39.7364         42
  39.9221         30
  40.1079         42
  40.2936         44
  40.4794         38
  40.6652         46
  40.8509         38
  41.0367         31
  41.2224         44
  41.4082         42
  41.5939         33
  41.7797         29
  41.9654         26
  42.1512         44
  42.3370         44
  42.5227         39
  42.7085         38
  42.8942         48
  43.0800         34
  43.2657         46
  43.4515         43
  43.6372         49
  43.8230         32
  44.0088         37
  44.1945         45
  44.3803         39
  44.5660         48
  44.7518         36
  44.9375         40
  45.1233         30
  45.3091         32
  45.4948         38
  45.6806         35
  45.8663         28
  46.0521         31
  46.2378         37
  46.4236         39
  46.6093         27
  46.7951         33
  46.9809         25
  47.1666         40
  47.3524         24
  47.5381         40
  47.7239         32
  47.9096         37
  48.0954         31
  48.2811         26
  48.4669         32
  48.6527         29
  48.8384         31
  49.0242         31
  49.2099         37
  49.3957         28
  49.5814         24
  49.7672         28
  49.9530         30
  50.1387         36
  50.3245         32
  50.5102         36
  50.6960         37
  50.8817         20
  51.0675         28
  51.2532         31
  51.4390         34
  51.6248         39
  51.8105         38
  51.9963         32
  52.1820         30
  52.3678         27
  52.5535         24
  52.7393         30
  52.9250         23
  53.1108         21
  53.2966         36
  53.4823         33
  53.6681         33
  53.8538         34
  54.0396         33
  54.2253         36
  54.4111         28
  54.5969         28
  54.7826         31
  54.9684         24
  55.1541         25
  55.3399         28
  55.5256         27
  55.7114         31
  55.8971         19
  56.0829         40
  56.2687         31
  56.4544         28
  56.6402         22
  56.8259         33
  57.0117         25
  57.1974         26
  57.3832         28
  57.5689         30
  57.7547         25
  57.9405         24
  58.1262         23
  58.3120         20
  58.4977         27
  58.6835         33
  58.8692         29
  59.0550         22
  59.2408         17
  59.4265         18
  59.6123         32
  59.7980         28
  59.9838         31
  60.0024         19

File: ML_20220720_3_SJD_4_LaB6-4min.csv
;,2THETA,
5.0000,278
5.1858,240
5.3715,231
5.5573,269
5.7430,208
5.9288,202
6.1145,213
6.3003,190
6.4860,186
6.6718,194
6.8576,171
7.0433,145
7.2291,167
7.4148,178
7.6006,189
7.7863,181
7.9721,156
8.1579,186
8.3436,204
8.5294,204
8.7151,212
8.9009,201
9.0866,219
9.2724,219
9.4581,226
9.6439,253
9.8297,251
10.0154,244
10.2012,231
10.3869,251
10.5727,219
10.7584,219
10.9442,223
11.1299,246
11.3157,220
11.5015,239
11.6872,249
11.8730,220
12.0587,236
12.2445,211
12.4302,245
12.6160,219
12.8018,198
12.9875,207
13.1733,222
13.3590,191
13.5448,211
13.7305,204
13.9163,175
14.1020,154
14.2878,198
14.4736,210
14.6593,177
14.8451,178
15.0308,173
15.2166,191
15.4023,196
15.5881,144
15.7738,170
15.9596,177
16.1454,183
16.3311,177
16.5169,158
16.7026,173
16.8884,194
17.0741,163
17.2599,172
17.4457,171
17.6314,151
17.8172,155
18.0029,164
18.1887,156
18.3744,147
18.5602,147
18.7459,185
18.9317,208
19.1175,186
19.3032,181
19.4890,173
19.6747,156
19.8605,190
20.0462,182
20.2320,192
20.4177,179
20.6035,170
20.7893,182
20.9750,198
21.1608,242
21.3465,542
21.5323,221
21.7180,215
21.9038,199
22.0896,181
22.2753,190
22.4611,208
22.6468,173
22.8326,220
23.0183,189
23.2041,198
23.3898,232
23.5756,195
23.7614,220
23.9471,213
24.1329,205
24.3186,227
24.5044,188
24.6901,224
24.8759,193
25.0616,187
25.2474,214
25.4332,184
25.6189,208
25.8047,197
25.9904,172
26.1762,191
26.3619,200
26.5477,194
26.7335,204
26.9192,183
27.1050,200
27.2907,204
27.4765,134
27.6622,176
27.8480,183
28.0337,187
28.2195,179
28.4053,165
28.5910,176
28.7768,179
28.9625,173
29.1483,145
29.3340,203
29.5198,149
29.7055,170
29.8913,157
30.0771,180
30.2628,159
30.4486,232
30.6343,169
30.8201,148
31.0058,141
31.1916,135
31.3774,151
31.5631,160
31.7489,165
31.9346,147
32.1204,140
32.3061,116
32.4919,165
32.6776,125
32.8634,117
33.0492,112
33.2349,133
33.4207,114
33.6064,108
33.7922,110
33.9779,99
34.1637,138
34.3494,106
34.5352,116
34.7210,131
34.9067,119
35.0925,118
35.2782,119
35.4640,109
35.6497,115
35.8355,81
36.0213,97
36.2070,97
36.3928,94
36.5785,103
36.7643,80
36.9500,81
37.1358,93
37.3215,93
37.5073,128
37.6931,88
37.8788,86
38.0646,80
38.2503,75
38.4361,75
38.6218,73
38.8076,73
38.9933,85
39.1791,80
39.3649,91
39.5506,73
39.7364,82
39.9221,71
40.1079,70
40.2936,90
40.4794,76
40.6652,95
40.8509,93
41.0367,90
41.2224,74
41.4082,78
41.5939,80
41.7797,74
41.9654,80
42.1512,77
42.3370,83
42.5227,76
42.7085,81
42.8942,64
43.0800,87
43.2657,85
43.4515,87
43.6372,96
43.8230,74
44.0088,72
44.1945,73
44.3803,83
44.5660,74
44.7518,86
44.9375,72
45.1233,73
45.3091,51
45.4948,68
45.6806,62
45.8663,55
46.0521,65
46.2378,65
46.4236,75
46.6093,59
46.7951,53
46.9809,64
47.1666,76
47.3524,88
47.5381,82
47.7239,74
47.9096,75
48.0954,52
48.2811,68
48.4669,75
48.6527,65
48.8384,64
49.0242,66
49.2099,70
49.3957,78
49.5814,68
49.7672,69
49.9530,58
50.1387,55
50.3245,79
50.5102,63
50.6960,58
50.8817,71
51.0675,69
51.2532,55
51.4390,55
51.6248,67
51.8105,61
51.9963,57
52.1820,58
52.3678,53
52.5535,58
52.7393,61
52.9250,61
53.1108,73
53.2966,47
53.4823,55
53.6681,58
53.8538,53
54.0396,61
54.2253,65
54.4111,57
54.5969,47
54.7826,70
54.9684,71
55.1541,57
55.3399,50
55.5256,57
55.7114,48
55.8971,59
56.0829,60
56.2687,73
56.4544,65
56.6402,69
56.8259,56
57.0117,67
57.1974,50
57.3832,51
57.5689,47
57.7547,68
57.9405,53
58.1262,60
58.3120,73
58.4977,56
58.6835,46
58.8692,63
59.0550,56
59.2408,49
59.4265,53
59.6123,49
59.7980,65
59.9838,68
60.0024,62

File: ML_20220720_4_SJD_4_LaB6-1min.csv
;,2THETA,
5.0000,105
5.1858,108
5.3715,89
5.5573,89
5.7430,82
5.9288,76
6.1145,56
6.3003,62
6.4860,58
6.6718,63
6.8576,74
7.0433,44
7.2291,69
7.4148,51
7.6006,65
7.7863,58
7.9721,67
8.1579,74
8.3436,70
8.5294,75
8.7151,73
8.9009,67
9.0866,68
9.2724,79
9.4581,78
9.6439,94
9.8297,92
10.0154,98
10.2012,86
10.3869,86
10.5727,84
10.7584,103
10.9442,86
11.1299,85
11.3157,89
11.5015,92
11.6872,90
11.8730,85
12.0587,90
12.2445,76
12.4302,80
12.6160,82
12.8018,69
12.9875,75
13.1733,59
13.3590,69
13.5448,82
13.7305,66
13.9163,68
14.1020,63
14.2878,75
14.4736,55
14.6593,59
14.8451,58
15.0308,63
15.2166,49
15.4023,51
15.5881,67
15.7738,64
15.9596,73
16.1454,53
16.3311,55
16.5169,66
16.7026,59
16.8884,54
17.0741,55
17.2599,61
17.4457,62
17.6314,66
17.8172,58
18.0029,68
18.1887,53
18.3744,59
18.5602,53
18.7459,71
18.9317,57
19.1175,50
19.3032,55
19.4890,61
19.6747,61
19.8605,65
20.0462,58
20.2320,73
20.4177,75
20.6035,54
20.7893,71
20.9750,79
21.1608,86
21.3465,171
21.5323,75
21.7180,63
21.9038,75
22.0896,63
22.2753,70
22.4611,76
22.6468,60
22.8326,66
23.0183,81
23.2041,80
23.3898,52
23.5756,71
23.7614,77
23.9471,81
24.1329,78
24.3186,94
24.5044,74
24.6901,78
24.8759,92
25.0616,68
25.2474,60
25.4332,70
25.6189,82
25.8047,73
25.9904,60
26.1762,67
26.3619,73
26.5477,44
26.7335,56
26.9192,80
27.1050,72
27.2907,69
27.4765,57
27.6622,74
27.8480,66
28.0337,72
28.2195,65
28.4053,67
28.5910,71
28.7768,51
28.9625,48
29.1483,74
29.3340,63
29.5198,56
29.7055,54
29.8913,66
30.0771,48
30.2628,61
30.4486,108
30.6343,57
30.8201,55
31.0058,66
31.1916,60
31.3774,58
31.5631,36
31.7489,55
31.9346,34
32.1204,55
32.3061,55
32.4919,48
32.6776,42
32.8634,34
33.0492,32
33.2349,38
33.4207,35
33.6064,34
33.7922,41
33.9779,45
34.1637,33
34.3494,44
34.5352,39
34.7210,54
34.9067,42
35.0925,37
35.2782,45
35.4640,39
35.6497,40
35.8355,45
36.0213,37
36.2070,33
36.3928,16
36.5785,30
36.7643,41
36.9500,27
37.1358,32
37.3215,38
37.5073,41
37.6931,32
37.8788,38
38.0646,32
38.2503,28
38.4361,28
38.6218,24
38.8076,30
38.9933,34
39.1791,27
39.3649,36
39.5506,21
39.7364,26
39.9221,21
40.1079,32
40.2936,29
40.4794,26
40.6652,32
40.8509,27
41.0367,19
41.2224,30
41.4082,30
41.5939,19
41.7797,28
41.9654,22
42.1512,26
42.3370,24
42.5227,22
42.7085,25
42.8942,27
43.0800,21
43.2657,31
43.4515,36
43.6372,34
43.8230,27
44.0088,26
44.1945,34
44.3803,22
44.5660,20
44.7518,35
44.9375,30
45.1233,27
45.3091,28
45.4948,28
45.6806,27
45.8663,23
46.0521,21
46.2378,30
46.4236,27
46.6093,29
46.7951,29
46.9809,23
47.1666,19
47.3524,22
47.5381,29
47.7239,28
47.9096,21
48.0954,26
48.2811,19
48.4669,29
48.6527,27
48.8384,19
49.0242,30
49.2099,21
49.3957,22
49.5814,19
49.7672,32
49.9530,20
50.1387,27
50.3245,27
50.5102,18
50.6960,18
50.8817,18
51.0675,31
51.2532,28
51.4390,21
51.6248,26
51.8105,23
51.9963,18
52.1820,17
52.3678,24
52.5535,29
52.7393,20
52.9250,21
53.1108,30
53.2966,26
53.4823,30
53.6681,20
53.8538,21
54.0396,25
54.2253,27
54.4111,27
54.5969,21
54.7826,26
54.9684,16
55.1541,27
55.3399,20
55.5256,25
55.7114,15
55.8971,18
56.0829,22
56.2687,23
56.4544,26
56.6402,19
56.8259,21
57.0117,17
57.1974,21
57.3832,15
57.5689,18
57.7547,25
57.9405,29
58.1262,20
58.3120,14
58.4977,21
58.6835,14
58.8692,23
59.0550,18
59.2408,25
59.4265,28
59.6123,18
59.7980,20
59.9838,18
60.0024,18