Folder: xrd_clustering/notebooks/data/xrd_data (part 2)

File: ML_20220718_9_SJD_4_LaB6-2min.uxd
; (content of file Y:\Sam\Apurva-07-20-2022\puck4\ML_20220718_9_SJD_0_LaB6-2min.raw)
_FILEVERSION = 3
_SAMPLE = ML_20220718_9_SJD_0_LaB6-2min
_+SAMPLE =
_SITE = USA
_USER = Administrator
_GONIOMETER_CODE = 20
; Goniometer : D8 theta/2theta, stage : Unknown
_ATTACHMENTS_CODE = 0
_GONIOMETER_RADIUS = 200.5
_FIXED_DIVSLIT = 0.6
_FIXED_SAMPLESLIT = 0
_SOLLER_SLITS = 2
_FIXED_DETSLIT = 9.55
_MONOCHROMATOR = 0
; Incident beam monochromator : None
_SOLLER_SLITS_2 = N
_THIN_FILM = N
_BETA_FILTER = Y
_FIXED_ANTISLIT = 5.89
_ANALYZER_CODE = 0
; Received beam analyzer : None
_DATEMEASURED = "26-Jul-2022 10:03:50"
_WL_UNIT = A
_WL1 = 1.5406
_WL2 = 1.54439
_WL3 = 1.39222
_WLRATIO = 0.5
_ANODE = Cu
_V4_INF_CREATOR = XRDWizard
_V4_INF_CREATOR_VERSION = V2.9.0.22
_V4_INF_WIZARD_VERSION = V2.9.0.22
_V4_INF_WIZARD_ADDINS = V2.9.0.22
_V4_INF_WIZARD_DOCTYPE = XRD
_V4_INF_OSUSER = McQueenLab
_V4_INF_USER = Administrator
_V4_INF_SITE = USA
_V4_INF_SAMPLEID = ML_20220718_9_SJD_0_LaB6-2min

; Data for range 1
_DRIVE = COUPLED
_STEPTIME = 5.64
_STEPSIZE = 0.0185756
_STEPMODE = C
_START = 5
_THETA = 2.5
_2THETA = 5
_KHI = 0
_PHI = 0
_X = 0
_Y = 0
_Z = 0
_DETECTOR = 5
; Detector type : Unknown
_DETECTORSLIT = unkn
_AUX1 = 0
_AUX2 = 0
_AUX3 = 0
_TIMESTARTED = 15
_TEMP_RATE = -1
_TEMP_DELAY = -1
_KV = 40
_MA = 40
_RANGE_WL = 1.5406
_3DPLANE = 0
_V4_ADDITIONALDETECTOR = 257
_V4_PSD2THETA = 3.3732
_V4_PSDCHANNEL1 = 0
_V4_PSDAPERTURE = 12.68
_V4_PSDTYPE = 5
_V4_PSDFIXED = 0
_V4_COUNTERS_MASK = 4096
_V4_DRIVES_MASK = 0
_V4_ENCODERS_MASK = 0
_2THETACOUNTS = 1
; 2THETA  PSD
   5.0000        133
   5.1858        116
   5.3715        112
   5.5573         97
   5.7430        100
   5.9288         91
   6.1145         81
   6.3003         98
   6.4860        102
   6.6718         99
   6.8576         82
   7.0433         74
   7.2291         74
   7.4148         74
   7.6006         95
   7.7863         77
   7.9721         81
   8.1579        119
   8.3436         92
   8.5294        118
   8.7151         90
   8.9009         96
   9.0866         98
   9.2724        108
   9.4581        117
   9.6439        130
   9.8297        123
  10.0154        119
  10.2012        112
  10.3869        110
  10.5727        115
  10.7584        101
  10.9442        123
  11.1299        107
  11.3157        125
  11.5015        114
  11.6872        118
  11.8730        107
  12.0587        107
  12.2445        109
  12.4302        115
  12.6160        121
  12.8018        117
  12.9875         98
  13.1733         79
  13.3590        110
  13.5448         95
  13.7305         93
  13.9163         95
  14.1020        110
  14.2878         84
  14.4736         82
  14.6593         95
  14.8451         86
  15.0308         95
  15.2166         73
  15.4023         85
  15.5881         68
  15.7738         77
  15.9596         65
  16.1454         78
  16.3311         90
  16.5169         77
  16.7026         89
  16.8884         74
  17.0741         77
  17.2599         84
  17.4457         87
  17.6314         85
  17.8172         71
  18.0029         91
  18.1887         84
  18.3744         83
  18.5602         68
  18.7459         83
  18.9317         73
  19.1175         77
  19.3032         95
  19.4890         83
  19.6747         87
  19.8605         88
  20.0462         77
  20.2320         98
  20.4177         91
  20.6035        109
  20.7893         91
  20.9750         86
  21.1608        114
  21.3465        249
  21.5323         96
  21.7180         84
  21.9038         81
  22.0896         85
  22.2753        117
  22.4611         99
  22.6468        105
  22.8326         97
  23.0183         83
  23.2041         99
  23.3898        101
  23.5756        106
  23.7614        109
  23.9471         95
  24.1329        122
  24.3186        117
  24.5044         89
  24.6901        100
  24.8759        104
  25.0616        112
  25.2474        113
  25.4332         96
  25.6189         97
  25.8047        109
  25.9904         91
  26.1762         91
  26.3619         84
  26.5477         99
  26.7335         83
  26.9192        104
  27.1050         95
  27.2907        104
  27.4765         86
  27.6622         96
  27.8480         83
  28.0337         85
  28.2195         84
  28.4053         70
  28.5910         82
  28.7768         97
  28.9625         72
  29.1483         67
  29.3340         90
  29.5198         93
  29.7055         85
  29.8913         79
  30.0771         66
  30.2628         72
  30.4486        107
  30.6343         82
  30.8201         56
  31.0058         75
  31.1916         71
  31.3774         74
  31.5631         66
  31.7489         69
  31.9346         68
  32.1204         60
  32.3061         65
  32.4919         76
  32.6776         74
  32.8634         63
  33.0492         70
  33.2349         54
  33.4207         51
  33.6064         59
  33.7922         64
  33.9779         54
  34.1637         55
  34.3494         57
  34.5352         48
  34.7210         75
  34.9067         58
  35.0925         57
  35.2782         61
  35.4640         54
  35.6497         54
  35.8355         59
  36.0213         46
  36.2070         63
  36.3928         51
  36.5785         50
  36.7643         54
  36.9500         39
  37.1358         43
  37.3215         61
  37.5073         58
  37.6931         39
  37.8788         50
  38.0646         48
  38.2503         31
  38.4361         35
  38.6218         32
  38.8076         43
  38.9933         41
  39.1791         27
  39.3649         43
  39.5506         32
  39.7364         30
  39.9221         39
  40.1079         43
  40.2936         38
  40.4794         31
  40.6652         38
  40.8509         41
  41.0367         46
  41.2224         29
  41.4082         41
  41.5939         54
  41.7797         37
  41.9654         30
  42.1512         28
  42.3370         37
  42.5227         35
  42.7085         32
  42.8942         37
  43.0800         35
  43.2657         41
  43.4515         59
  43.6372         53
  43.8230         37
  44.0088         46
  44.1945         40
  44.3803         32
  44.5660         45
  44.7518         41
  44.9375         42
  45.1233         38
  45.3091         32
  45.4948         27
  45.6806         30
  45.8663         25
  46.0521         29
  46.2378         43
  46.4236         34
  46.6093         41
  46.7951         31
  46.9809         34
  47.1666         30
  47.3524         35
  47.5381         26
  47.7239         23
  47.9096         26
  48.0954         30
  48.2811         26
  48.4669         26
  48.6527         34
  48.8384         32
  49.0242         30
  49.2099         34
  49.3957         38
  49.5814         40
  49.7672         40
  49.9530         29
  50.1387         30
  50.3245         42
  50.5102         22
  50.6960         40
  50.8817         25
  51.0675         30
  51.2532         28
  51.4390         35
  51.6248         28
  51.8105         39
  51.9963         27
  52.1820         33
  52.3678         34
  52.5535         30
  52.7393         26
  52.9250         27
  53.1108         15
  53.2966         25
  53.4823         28
  53.6681         31
  53.8538         21
  54.0396         35
  54.2253         21
  54.4111         24
  54.5969         29
  54.7826         31
  54.9684         37
  55.1541         33
  55.3399         36
  55.5256         41
  55.7114         23
  55.8971         29
  56.0829         24
  56.2687         22
  56.4544         20
  56.6402         40
  56.8259         27
  57.0117         28
  57.1974         16
  57.3832         36
  57.5689         34
  57.7547         27
  57.9405         28
  58.1262         27
  58.3120         33
  58.4977         24
  58.6835         33
  58.8692         25
  59.0550         23
  59.2408         21
  59.4265         25
  59.6123         32
  59.7980         18
  59.9838         24
  60.0024         26

File: ML_20220718_10_SJD_4_LaB6-2min.uxd
; (content of file Y:\Sam\Apurva-07-20-2022\puck4\ML_20220718_10_SJD_0_LaB6-2min.raw)
_FILEVERSION = 3
_SAMPLE = ML_20220718_10_SJD_0_LaB6-2min
_+SAMPLE =
_SITE = USA
_USER = Administrator
_GONIOMETER_CODE = 20
; Goniometer : D8 theta/2theta, stage : Unknown
_ATTACHMENTS_CODE = 0
_GONIOMETER_RADIUS = 200.5
_FIXED_DIVSLIT = 0.6
_FIXED_SAMPLESLIT = 0
_SOLLER_SLITS = 2
_FIXED_DETSLIT = 9.55
_MONOCHROMATOR = 0
; Incident beam monochromator : None
_SOLLER_SLITS_2 = N
_THIN_FILM = N
_BETA_FILTER = Y
_FIXED_ANTISLIT = 5.89
_ANALYZER_CODE = 0
; Received beam analyzer : None
_DATEMEASURED = "26-Jul-2022 10:01:26"
_WL_UNIT = A
_WL1 = 1.5406
_WL2 = 1.54439
_WL3 = 1.39222
_WLRATIO = 0.5
_ANODE = Cu
_V4_INF_CREATOR = XRDWizard
_V4_INF_CREATOR_VERSION = V2.9.0.22
_V4_INF_WIZARD_VERSION = V2.9.0.22
_V4_INF_WIZARD_ADDINS = V2.9.0.22
_V4_INF_WIZARD_DOCTYPE = XRD
_V4_INF_OSUSER = McQueenLab
_V4_INF_USER = Administrator
_V4_INF_SITE = USA
_V4_INF_SAMPLEID = ML_20220718_10_SJD_0_LaB6-2min

; Data for range 1
_DRIVE = COUPLED
_STEPTIME = 5.64
_STEPSIZE = 0.0185756
_STEPMODE = C
_START = 5
_THETA = 2.5
_2THETA = 5
_KHI = 0
_PHI = 0
_X = 0
_Y = 0
_Z = 0
_DETECTOR = 5
; Detector type : Unknown
_DETECTORSLIT = unkn
_AUX1 = 0
_AUX2 = 0
_AUX3 = 0
_TIMESTARTED = 15
_TEMP_RATE = -1
_TEMP_DELAY = -1
_KV = 40
_MA = 40
_RANGE_WL = 1.5406
_3DPLANE = 0
_V4_ADDITIONALDETECTOR = 257
_V4_PSD2THETA = 3.4232
_V4_PSDCHANNEL1 = 0
_V4_PSDAPERTURE = 12.68
_V4_PSDTYPE = 5
_V4_PSDFIXED = 0
_V4_COUNTERS_MASK = 4096
_V4_DRIVES_MASK = 0
_V4_ENCODERS_MASK = 0
_2THETACOUNTS = 1
; 2THETA  PSD
   5.0000        123
   5.1858        107
   5.3715        108
   5.5573        134
   5.7430        103
   5.9288         97
   6.1145        102
   6.3003         83
   6.4860         81
   6.6718         78
   6.8576         86
   7.0433         80
   7.2291         95
   7.4148         78
   7.6006         75
   7.7863        105
   7.9721         89
   8.1579        100
   8.3436         91
   8.5294        110
   8.7151        109
   8.9009        114
   9.0866        103
   9.2724         96
   9.4581        104
   9.6439         98
   9.8297        123
  10.0154        103
  10.2012        114
  10.3869        119
  10.5727        113
  10.7584        118
  10.9442        104
  11.1299        122
  11.3157        106
  11.5015        135
  11.6872        110
  11.8730        135
  12.0587        129
  12.2445         94
  12.4302         98
  12.6160        104
  12.8018         97
  12.9875         93
  13.1733        106
  13.3590         95
  13.5448         91
  13.7305         86
  13.9163         94
  14.1020         90
  14.2878         97
  14.4736         80
  14.6593         88
  14.8451         91
  15.0308         91
  15.2166         79
  15.4023         97
  15.5881         70
  15.7738         89
  15.9596         79
  16.1454         93
  16.3311         67
  16.5169         85
  16.7026         80
  16.8884         64
  17.0741         82
  17.2599         73
  17.4457         89
  17.6314         73
  17.8172         71
  18.0029         78
  18.1887         81
  18.3744         67
  18.5602         93
  18.7459         76
  18.9317        108
  19.1175         88
  19.3032        106
  19.4890         83
  19.6747         85
  19.8605         86
  20.0462         91
  20.2320        101
  20.4177         91
  20.6035         84
  20.7893         85
  20.9750         92
  21.1608        130
  21.3465        252
  21.5323         97
  21.7180        100
  21.9038        105
  22.0896         92
  22.2753         79
  22.4611        110
  22.6468        101
  22.8326         95
  23.0183        100
  23.2041         85
  23.3898        111
  23.5756        110
  23.7614        107
  23.9471         97
  24.1329        106
  24.3186         97
  24.5044         97
  24.6901         98
  24.8759         93
  25.0616         92
  25.2474         88
  25.4332         91
  25.6189         87
  25.8047         83
  25.9904         88
  26.1762         98
  26.3619         92
  26.5477        101
  26.7335         95
  26.9192         92
  27.1050        102
  27.2907        126
  27.4765         89
  27.6622         98
  27.8480         80
  28.0337         81
  28.2195         93
  28.4053         83
  28.5910         92
  28.7768         79
  28.9625         71
  29.1483         88
  29.3340         78
  29.5198         73
  29.7055         73
  29.8913         71
  30.0771         73
  30.2628         88
  30.4486        139
  30.6343         58
  30.8201         68
  31.0058         66
  31.1916         70
  31.3774         70
  31.5631         77
  31.7489         80
  31.9346         58
  32.1204         59
  32.3061         67
  32.4919         66
  32.6776         59
  32.8634         63
  33.0492         76
  33.2349         58
  33.4207         59
  33.6064         57
  33.7922         55
  33.9779         69
  34.1637         60
  34.3494         59
  34.5352         74
  34.7210         58
  34.9067         62
  35.0925         54
  35.2782         57
  35.4640         49
  35.6497         60
  35.8355         42
  36.0213         40
  36.2070         49
  36.3928         47
  36.5785         59
  36.7643         55
  36.9500         48
  37.1358         47
  37.3215         38
  37.5073         45
  37.6931         48
  37.8788         52
  38.0646         50
  38.2503         38
  38.4361         47
  38.6218         42
  38.8076         43
  38.9933         37
  39.1791         37
  39.3649         40
  39.5506         40
  39.7364         47
  39.9221         37
  40.1079         35
  40.2936         38
  40.4794         36
  40.6652         31
  40.8509         45
  41.0367         46
  41.2224         31
  41.4082         51
  41.5939         38
  41.7797         35
  41.9654         30
  42.1512         36
  42.3370         37
  42.5227         33
  42.7085         38
  42.8942         43
  43.0800         28
  43.2657         40
  43.4515         51
  43.6372         48
  43.8230         36
  44.0088         36
  44.1945         36
  44.3803         41
  44.5660         46
  44.7518         48
  44.9375         33
  45.1233         37
  45.3091         30
  45.4948         36
  45.6806         36
  45.8663         49
  46.0521         22
  46.2378         26
  46.4236         43
  46.6093         30
  46.7951         30
  46.9809         28
  47.1666         32
  47.3524         35
  47.5381         41
  47.7239         25
  47.9096         42
  48.0954         43
  48.2811         33
  48.4669         33
  48.6527         49
  48.8384         40
  49.0242         24
  49.2099         26
  49.3957         25
  49.5814         44
  49.7672         29
  49.9530         17
  50.1387         29
  50.3245         34
  50.5102         24
  50.6960         27
  50.8817         22
  51.0675         24
  51.2532         35
  51.4390         35
  51.6248         36
  51.8105         30
  51.9963         30
  52.1820         35
  52.3678         25
  52.5535         23
  52.7393         30
  52.9250         28
  53.1108         32
  53.2966         23
  53.4823         34
  53.6681         39
  53.8538         23
  54.0396         36
  54.2253         32
  54.4111         39
  54.5969         39
  54.7826         30
  54.9684         26
  55.1541         40
  55.3399         26
  55.5256         24
  55.7114         29
  55.8971         20
  56.0829         27
  56.2687         38
  56.4544         31
  56.6402         38
  56.8259         26
  57.0117         21
  57.1974         28
  57.3832         33
  57.5689         28
  57.7547         30
  57.9405         28
  58.1262         32
  58.3120         29
  58.4977         30
  58.6835         24
  58.8692         30
  59.0550         33
  59.2408         29
  59.4265         25
  59.6123         29
  59.7980         22
  59.9838         11
  60.0024         33

File: ML_20220718_11_SJD_4_LaB6-2min.csv
;,2THETA,
5.0000,112
5.1858,117
5.3715,117
5.5573,120
5.7430,103
5.9288,83
6.1145,104
6.3003,94
6.4860,94
6.6718,94
6.8576,82
7.0433,78
7.2291,67
7.4148,81
7.6006,87
7.7863,92
7.9721,108
8.1579,93
8.3436,113
8.5294,101
8.7151,118
8.9009,112
9.0866,99
9.2724,119
9.4581,110
9.6439,107
9.8297,115
10.0154,124
10.2012,134
10.3869,113
10.5727,113
10.7584,106
10.9442,121
11.1299,110
11.3157,116
11.5015,120
11.6872,107
11.8730,114
12.0587,114
12.2445,104
12.4302,98
12.6160,114
12.8018,105
12.9875,102
13.1733,103
13.3590,88
13.5448,78
13.7305,87
13.9163,102
14.1020,88
14.2878,83
14.4736,96
14.6593,78
14.8451,82
15.0308,87
15.2166,82
15.4023,100
15.5881,89
15.7738,89
15.9596,82
16.1454,70
16.3311,91
16.5169,100
16.7026,81
16.8884,93
17.0741,80
17.2599,88
17.4457,82
17.6314,83
17.8172,91
18.0029,87
18.1887,76
18.3744,79
18.5602,83
18.7459,104
18.9317,77
19.1175,85
19.3032,89
19.4890,73
19.6747,76
19.8605,89
20.0462,96
20.2320,104
20.4177,69
20.6035,88
20.7893,100
20.9750,88
21.1608,109
21.3465,229
21.5323,107
21.7180,87
21.9038,99
22.0896,95
22.2753,94
22.4611,89
22.6468,88
22.8326,96
23.0183,92
23.2041,96
23.3898,94
23.5756,111
23.7614,110
23.9471,84
24.1329,106
24.3186,104
24.5044,96
24.6901,96
24.8759,94
25.0616,85
25.2474,96
25.4332,96
25.6189,89
25.8047,97
25.9904,107
26.1762,94
26.3619,99
26.5477,83
26.7335,90
26.9192,94
27.1050,89
27.2907,91
27.4765,93
27.6622,85
27.8480,100
28.0337,90
28.2195,98
28.4053,70
28.5910,99
28.7768,85
28.9625,88
29.1483,79
29.3340,78
29.5198,73
29.7055,86
29.8913,72
30.0771,84
30.2628,79
30.4486,131
30.6343,70
30.8201,76
31.0058,71
31.1916,85
31.3774,62
31.5631,53
31.7489,71
31.9346,71
32.1204,71
32.3061,73
32.4919,76
32.6776,68
32.8634,53
33.0492,66
33.2349,64
33.4207,73
33.6064,61
33.7922,62
33.9779,56
34.1637,70
34.3494,46
34.5352,60
34.7210,65
34.9067,41
35.0925,49
35.2782,48
35.4640,58
35.6497,44
35.8355,50
36.0213,58
36.2070,48
36.3928,49
36.5785,40
36.7643,46
36.9500,47
37.1358,40
37.3215,51
37.5073,54
37.6931,46
37.8788,39
38.0646,38
38.2503,39
38.4361,30
38.6218,47
38.8076,39
38.9933,50
39.1791,42
39.3649,40
39.5506,43
39.7364,46
39.9221,41
40.1079,30
40.2936,40
40.4794,38
40.6652,48
40.8509,31
41.0367,35
41.2224,33
41.4082,34
41.5939,35
41.7797,40
41.9654,34
42.1512,41
42.3370,34
42.5227,41
42.7085,35
42.8942,38
43.0800,42
43.2657,41
43.4515,31
43.6372,50
43.8230,32
44.0088,37
44.1945,45
44.3803,37
44.5660,40
44.7518,43
44.9375,35
45.1233,47
45.3091,36
45.4948,36
45.6806,31
45.8663,31
46.0521,35
46.2378,25
46.4236,33
46.6093,36
46.7951,36
46.9809,34
47.1666,34
47.3524,40
47.5381,34
47.7239,29
47.9096,36
48.0954,29
48.2811,34
48.4669,37
48.6527,33
48.8384,26
49.0242,39
49.2099,25
49.3957,31
49.5814,33
49.7672,31
49.9530,27
50.1387,27
50.3245,25
50.5102,39
50.6960,25
50.8817,28
51.0675,30
51.2532,35
51.4390,38
51.6248,33
51.8105,32
51.9963,21
52.1820,30
52.3678,35
52.5535,39
52.7393,28
52.9250,22
53.1108,26
53.2966,23
53.4823,20
53.6681,32
53.8538,24
54.0396,35
54.2253,23
54.4111,23
54.5969,29
54.7826,21
54.9684,23
55.1541,23
55.3399,26
55.5256,33
55.7114,30
55.8971,19
56.0829,39
56.2687,38
56.4544,31
56.6402,38
56.8259,26
57.0117,26
57.1974,32
57.3832,28
57.5689,22
57.7547,27
57.9405,26
58.1262,25
58.3120,25
58.4977,24
58.6835,32
58.8692,24
59.0550,34
59.2408,23
59.4265,29
59.6123,23
59.7980,37
59.9838,28
60.0024,31

File: ML_20220718_12_SJD_4_LaB6-2min.csv
;,2THETA,
5.0000,126
5.1858,125
5.3715,147
5.5573,111
5.7430,124
5.9288,97
6.1145,100
6.3003,87
6.4860,98
6.6718,108
6.8576,83
7.0433,87
7.2291,74
7.4148,91
7.6006,91
7.7863,89
7.9721,91
8.1579,82
8.3436,103
8.5294,82
8.7151,93
8.9009,98
9.0866,99
9.2724,105
9.4581,117
9.6439,133
9.8297,134
10.0154,117
10.2012,115
10.3869,138
10.5727,130
10.7584,121
10.9442,108
11.1299,92
11.3157,119
11.5015,99
11.6872,95
11.8730,122
12.0587,116
12.2445,116
12.4302,130
12.6160,109
12.8018,98
12.9875,113
13.1733,96
13.3590,99
13.5448,97
13.7305,89
13.9163,97
14.1020,79
14.2878,87
14.4736,99
14.6593,74
14.8451,98
15.0308,80
15.2166,72
15.4023,81
15.5881,79
15.7738,85
15.9596,87
16.1454,78
16.3311,76
16.5169,81
16.7026,93
16.8884,89
17.0741,81
17.2599,99
17.4457,81
17.6314,81
17.8172,86
18.0029,71
18.1887,74
18.3744,89
18.5602,79
18.7459,91
18.9317,81
19.1175,91
19.3032,77
19.4890,80
19.6747,95
19.8605,90
20.0462,85
20.2320,77
20.4177,89
20.6035,101
20.7893,91
20.9750,94
21.1608,99
21.3465,242
21.5323,85
21.7180,73
21.9038,97
22.0896,96
22.2753,91
22.4611,122
22.6468,102
22.8326,103
23.0183,106
23.2041,114
23.3898,110
23.5756,89
23.7614,85
23.9471,87
24.1329,99
24.3186,96
24.5044,108
24.6901,119
24.8759,100
25.0616,87
25.2474,82
25.4332,99
25.6189,82
25.8047,96
25.9904,96
26.1762,89
26.3619,92
26.5477,95
26.7335,86
26.9192,89
27.1050,105
27.2907,115
27.4765,78
27.6622,86
27.8480,77
28.0337,78
28.2195,92
28.4053,92
28.5910,90
28.7768,73
28.9625,80
29.1483,88
29.3340,74
29.5198,73
29.7055,69
29.8913,72
30.0771,75
30.2628,71
30.4486,123
30.6343,72
30.8201,58
31.0058,74
31.1916,79
31.3774,65
31.5631,63
31.7489,84
31.9346,68
32.1204,54
32.3061,59
32.4919,70
32.6776,72
32.8634,72
33.0492,62
33.2349,60
33.4207,66
33.6064,59
33.7922,55
33.9779,60
34.1637,58
34.3494,54
34.5352,51
34.7210,86
34.9067,76
35.0925,59
35.2782,55
35.4640,46
35.6497,56
35.8355,44
36.0213,49
36.2070,61
36.3928,29
36.5785,42
36.7643,52
36.9500,48
37.1358,46
37.3215,48
37.5073,62
37.6931,43
37.8788,34
38.0646,48
38.2503,44
38.4361,31
38.6218,47
38.8076,44
38.9933,38
39.1791,29
39.3649,46
39.5506,36
39.7364,42
39.9221,42
40.1079,34
40.2936,35
40.4794,41
40.6652,41
40.8509,44
41.0367,35
41.2224,40
41.4082,45
41.5939,39
41.7797,26
41.9654,36
42.1512,38
42.3370,37
42.5227,34
42.7085,34
42.8942,34
43.0800,35
43.2657,42
43.4515,40
43.6372,53
43.8230,26
44.0088,36
44.1945,29
44.3803,27
44.5660,43
44.7518,50
44.9375,37
45.1233,34
45.3091,33
45.4948,38
45.6806,36
45.8663,31
46.0521,36
46.2378,26
46.4236,32
46.6093,34
46.7951,36
46.9809,46
47.1666,33
47.3524,36
47.5381,26
47.7239,47
47.9096,25
48.0954,28
48.2811,32
48.4669,28
48.6527,30
48.8384,39
49.0242,36
49.2099,28
49.3957,23
49.5814,30
49.7672,30
49.9530,38
50.1387,30
50.3245,26
50.5102,15
50.6960,27
50.8817,33
51.0675,31
51.2532,32
51.4390,37
51.6248,31
51.8105,26
51.9963,39
52.1820,22
52.3678,26
52.5535,28
52.7393,35
52.9250,32
53.1108,29
53.2966,34
53.4823,40
53.6681,33
53.8538,32
54.0396,30
54.2253,27
54.4111,41
54.5969,28
54.7826,20
54.9684,28
55.1541,28
55.3399,27
55.5256,26
55.7114,22
55.8971,30
56.0829,27
56.2687,33
56.4544,28
56.6402,32
56.8259,24
57.0117,18
57.1974,27
57.3832,21
57.5689,30
57.7547,30
57.9405,26
58.1262,22
58.3120,32
58.4977,26
58.6835,26
58.8692,23
59.0550,27
59.2408,32
59.4265,27
59.6123,27
59.7980,23
59.9838,27
60.0024,31

File: ML_20220718_13_SJD_4_LaB6-2min.csv
;,2THETA,
5.0000,130
5.1858,107
5.3715,131
5.5573,113
5.7430,103
5.9288,118
6.1145,93
6.3003,79
6.4860,88
6.6718,84
6.8576,78
7.0433,83
7.2291,81
7.4148,92
7.6006,76
7.7863,84
7.9721,102
8.1579,84
8.3436,76
8.5294,106
8.7151,98
8.9009,101
9.0866,117
9.2724,108
9.4581,100
9.6439,115
9.8297,111
10.0154,121
10.2012,110
10.3869,131
10.5727,119
10.7584,120
10.9442,129
11.1299,135
11.3157,120
11.5015,113
11.6872,115
11.8730,113
12.0587,115
12.2445,126
12.4302,114
12.6160,118
12.8018,101
12.9875,103
13.1733,89
13.3590,104
13.5448,101
13.7305,90
13.9163,85
14.1020,84
14.2878,98
14.4736,96
14.6593,84
14.8451,77
15.0308,82
15.2166,91
15.4023,86
15.5881,88
15.7738,72
15.9596,78
16.1454,79
16.3311,85
16.5169,89
16.7026,74
16.8884,80
17.0741,101
17.2599,75
17.4457,69
17.6314,64
17.8172,74
18.0029,90
18.1887,90
18.3744,94
18.5602,83
18.7459,80
18.9317,81
19.1175,85
19.3032,96
19.4890,81
19.6747,82
19.8605,97
20.0462,89
20.2320,95
20.4177,93
20.6035,101
20.7893,90
20.9750,102
21.1608,117
21.3465,238
21.5323,93
21.7180,97
21.9038,97
22.0896,118
22.2753,107
22.4611,98
22.6468,83
22.8326,83
23.0183,84
23.2041,99
23.3898,123
23.5756,93
23.7614,106
23.9471,108
24.1329,106
24.3186,89
24.5044,110
24.6901,114
24.8759,113
25.0616,102
25.2474,99
25.4332,104
25.6189,82
25.8047,86
25.9904,101
26.1762,87
26.3619,100
26.5477,76
26.7335,85
26.9192,94
27.1050,88
27.2907,120
27.4765,81
27.6622,89
27.8480,87
28.0337,86
28.2195,70
28.4053,92
28.5910,69
28.7768,84
28.9625,68
29.1483,74
29.3340,70
29.5198,88
29.7055,83
29.8913,73
30.0771,74
30.2628,91
30.4486,110
30.6343,82
30.8201,72
31.0058,83
31.1916,63
31.3774,66
31.5631,62
31.7489,61
31.9346,70
32.1204,67
32.3061,74
32.4919,74
32.6776,65
32.8634,75
33.0492,59
33.2349,61
33.4207,58
33.6064,67
33.7922,43
33.9779,60
34.1637,61
34.3494,55
34.5352,61
34.7210,64
34.9067,57
35.0925,49
35.2782,46
35.4640,47
35.6497,52
35.8355,40
36.0213,60
36.2070,62
36.3928,48
36.5785,51
36.7643,54
36.9500,48
37.1358,45
37.3215,48
37.5073,39
37.6931,46
37.8788,37
38.0646,35
38.2503,47
38.4361,43
38.6218,41
38.8076,40
38.9933,37
39.1791,30
39.3649,43
39.5506,44
39.7364,41
39.9221,48
40.1079,35
40.2936,32
40.4794,39
40.6652,41
40.8509,39
41.0367,30
41.2224,33
41.4082,34
41.5939,43
41.7797,34
41.9654,44
42.1512,35
42.3370,39
42.5227,43
42.7085,27
42.8942,24
43.0800,41
43.2657,45
43.4515,46
43.6372,50
43.8230,41
44.0088,37
44.1945,53
44.3803,30
44.5660,44
44.7518,39
44.9375,34
45.1233,29
45.3091,32
45.4948,44
45.6806,37
45.8663,32
46.0521,38
46.2378,38
46.4236,37
46.6093,33
46.7951,33
46.9809,43
47.1666,34
47.3524,29
47.5381,34
47.7239,37
47.9096,33
48.0954,31
48.2811,40
48.4669,39
48.6527,28
48.8384,37
49.0242,39
49.2099,27
49.3957,40
49.5814,35
49.7672,32
49.9530,32
50.1387,35
50.3245,33
50.5102,28
50.6960,24
50.8817,26
51.0675,28
51.2532,31
51.4390,37
51.6248,25
51.8105,31
51.9963,38
52.1820,36
52.3678,25
52.5535,26
52.7393,38
52.9250,26
53.1108,24
53.2966,23
53.4823,36
53.6681,21
53.8538,33
54.0396,42
54.2253,34
54.4111,31
54.5969,33
54.7826,28
54.9684,23
55.1541,36
55.3399,32
55.5256,26
55.7114,31
55.8971,27
56.0829,29
56.2687,25
56.4544,29
56.6402,21
56.8259,34
57.0117,20
57.1974,30
57.3832,29
57.5689,17
57.7547,23
57.9405,30
58.1262,29
58.3120,28
58.4977,36
58.6835,31
58.8692,28
59.0550,23
59.2408,31
59.4265,29
59.6123,24
59.7980,22
59.9838,30
60.0024,28