Folder: xrd_clustering/notebooks/data/xrd_data (part 30)

File: ML_20220720_9_SJD_4_LaB6-4min.csv
;,2THETA,
5.0000,243
5.1858,290
5.3715,223
5.5573,220
5.7430,198
5.9288,188
6.1145,182
6.3003,185
6.4860,179
6.6718,161
6.8576,185
7.0433,167
7.2291,166
7.4148,180
7.6006,162
7.7863,190
7.9721,192
8.1579,210
8.3436,190
8.5294,210
8.7151,219
8.9009,209
9.0866,231
9.2724,218
9.4581,216
9.6439,233
9.8297,232
10.0154,262
10.2012,211
10.3869,217
10.5727,253
10.7584,252
10.9442,239
11.1299,227
11.3157,221
11.5015,248
11.6872,242
11.8730,243
12.0587,212
12.2445,214
12.4302,202
12.6160,214
12.8018,185
12.9875,218
13.1733,168
13.3590,196
13.5448,192
13.7305,186
13.9163,172
14.1020,169
14.2878,178
14.4736,169
14.6593,139
14.8451,188
15.0308,164
15.2166,193
15.4023,137
15.5881,152
15.7738,151
15.9596,147
16.1454,164
16.3311,192
16.5169,164
16.7026,155
16.8884,162
17.0741,155
17.2599,159
17.4457,155
17.6314,176
17.8172,174
18.0029,154
18.1887,163
18.3744,167
18.5602,205
18.7459,172
18.9317,160
19.1175,168
19.3032,203
19.4890,155
19.6747,148
19.8605,163
20.0462,205
20.2320,179
20.4177,193
20.6035,178
20.7893,204
20.9750,191
21.1608,205
21.3465,486
21.5323,199
21.7180,206
21.9038,207
22.0896,207
22.2753,197
22.4611,186
22.6468,204
22.8326,209
23.0183,210
23.2041,191
23.3898,164
23.5756,200
23.7614,199
23.9471,202
24.1329,206
24.3186,234
24.5044,215
24.6901,183
24.8759,220
25.0616,199
25.2474,193
25.4332,192
25.6189,190
25.8047,189
25.9904,171
26.1762,205
26.3619,192
26.5477,191
26.7335,189
26.9192,185
27.1050,237
27.2907,237
27.4765,165
27.6622,178
27.8480,191
28.0337,174
28.2195,171
28.4053,181
28.5910,184
28.7768,167
28.9625,158
29.1483,160
29.3340,170
29.5198,168
29.7055,149
29.8913,159
30.0771,143
30.2628,170
30.4486,258
30.6343,144
30.8201,142
31.0058,149
31.1916,142
31.3774,139
31.5631,127
31.7489,116
31.9346,128
32.1204,129
32.3061,142
32.4919,154
32.6776,131
32.8634,128
33.0492,140
33.2349,135
33.4207,111
33.6064,142
33.7922,105
33.9779,112
34.1637,105
34.3494,118
34.5352,131
34.7210,158
34.9067,157
35.0925,111
35.2782,96
35.4640,100
35.6497,107
35.8355,99
36.0213,108
36.2070,98
36.3928,89
36.5785,92
36.7643,102
36.9500,92
37.1358,102
37.3215,78
37.5073,107
37.6931,94
37.8788,85
38.0646,84
38.2503,75
38.4361,90
38.6218,83
38.8076,94
38.9933,93
39.1791,81
39.3649,64
39.5506,80
39.7364,84
39.9221,76
40.1079,75
40.2936,80
40.4794,78
40.6652,71
40.8509,83
41.0367,74
41.2224,65
41.4082,93
41.5939,65
41.7797,82
41.9654,71
42.1512,89
42.3370,86
42.5227,81
42.7085,73
42.8942,82
43.0800,74
43.2657,105
43.4515,85
43.6372,100
43.8230,68
44.0088,79
44.1945,74
44.3803,94
44.5660,78
44.7518,74
44.9375,71
45.1233,75
45.3091,67
45.4948,70
45.6806,71
45.8663,54
46.0521,77
46.2378,68
46.4236,81
46.6093,57
46.7951,75
46.9809,81
47.1666,54
47.3524,57
47.5381,71
47.7239,66
47.9096,70
48.0954,72
48.2811,70
48.4669,71
48.6527,62
48.8384,65
49.0242,72
49.2099,74
49.3957,69
49.5814,66
49.7672,69
49.9530,46
50.1387,72
50.3245,59
50.5102,71
50.6960,66
50.8817,52
51.0675,63
51.2532,42
51.4390,79
51.6248,68
51.8105,65
51.9963,70
52.1820,61
52.3678,49
52.5535,54
52.7393,53
52.9250,61
53.1108,56
53.2966,51
53.4823,53
53.6681,56
53.8538,67
54.0396,81
54.2253,61
54.4111,45
54.5969,62
54.7826,40
54.9684,60
55.1541,59
55.3399,58
55.5256,61
55.7114,63
55.8971,57
56.0829,51
56.2687,68
56.4544,54
56.6402,58
56.8259,69
57.0117,63
57.1974,57
57.3832,67
57.5689,52
57.7547,66
57.9405,42
58.1262,66
58.3120,51
58.4977,58
58.6835,63
58.8692,59
59.0550,60
59.2408,54
59.4265,51
59.6123,38
59.7980,63
59.9838,48
60.0024,50

File: ML_20220720_10_SJD_4_LaB6-1min.uxd
; (content of file Y:\Sam\Apurva-07-20-2022\puck2\ML_20220720_10_SJD_0_LaB6-1min.raw)
_FILEVERSION = 3
_SAMPLE = ML_20220720_10_SJD_0_LaB6-1mi
_+SAMPLE =
_SITE = USA
_USER = Administrator
_GONIOMETER_CODE = 20
; Goniometer : D8 theta/2theta, stage : Unknown
_ATTACHMENTS_CODE = 0
_GONIOMETER_RADIUS = 200.5
_FIXED_DIVSLIT = 0.6
_FIXED_SAMPLESLIT = 0
_SOLLER_SLITS = 2
_FIXED_DETSLIT = 9.55
_MONOCHROMATOR = 0
; Incident beam monochromator : None
_SOLLER_SLITS_2 = N
_THIN_FILM = N
_BETA_FILTER = Y
_FIXED_ANTISLIT = 5.89
_ANALYZER_CODE = 0
; Received beam analyzer : None
_DATEMEASURED = "25-Jul-2022 18:04:57"
_WL_UNIT = A
_WL1 = 1.5406
_WL2 = 1.54439
_WL3 = 1.39222
_WLRATIO = 0.5
_ANODE = Cu
_V4_INF_CREATOR = XRDWizard
_V4_INF_CREATOR_VERSION = V2.9.0.22
_V4_INF_WIZARD_VERSION = V2.9.0.22
_V4_INF_WIZARD_ADDINS = V2.9.0.22
_V4_INF_WIZARD_DOCTYPE = XRD
_V4_INF_OSUSER = McQueenLab
_V4_INF_USER = Administrator
_V4_INF_SITE = USA
_V4_INF_SAMPLEID = ML_20220720_10_SJD_0_LaB6-1mi

; Data for range 1
_DRIVE = COUPLED
_STEPTIME = 4.23
_STEPSIZE = 0.0185756
_STEPMODE = C
_START = 5
_THETA = 2.5
_2THETA = 5
_KHI = 0
_PHI = 0
_X = 0
_Y = 0
_Z = 0
_DETECTOR = 5
; Detector type : Unknown
_DETECTORSLIT = unkn
_AUX1 = 0
_AUX2 = 0
_AUX3 = 0
_TIMESTARTED = 16
_TEMP_RATE = -1
_TEMP_DELAY = -1
_KV = 40
_MA = 40
_RANGE_WL = 1.5406
_3DPLANE = 0
_V4_ADDITIONALDETECTOR = 257
_V4_PSD2THETA = 3.3766
_V4_PSDCHANNEL1 = 0
_V4_PSDAPERTURE = 12.68
_V4_PSDTYPE = 5
_V4_PSDFIXED = 0
_V4_COUNTERS_MASK = 4096
_V4_DRIVES_MASK = 0
_V4_ENCODERS_MASK = 0
_2THETACOUNTS = 1
; 2THETA  PSD
   5.0000         97
   5.1858        101
   5.3715         89
   5.5573         82
   5.7430         87
   5.9288         70
   6.1145         76
   6.3003         77
   6.4860         54
   6.6718         73
   6.8576         61
   7.0433         66
   7.2291         63
   7.4148         59
   7.6006         63
   7.7863         68
   7.9721         62
   8.1579         63
   8.3436         68
   8.5294         79
   8.7151         64
   8.9009         72
   9.0866         77
   9.2724         76
   9.4581         83
   9.6439         62
   9.8297         71
  10.0154         73
  10.2012         95
  10.3869         89
  10.5727         72
  10.7584         84
  10.9442         88
  11.1299         95
  11.3157         87
  11.5015         87
  11.6872         91
  11.8730         84
  12.0587         73
  12.2445         90
  12.4302         79
  12.6160         81
  12.8018         75
  12.9875         81
  13.1733         70
  13.3590         82
  13.5448         69
  13.7305         79
  13.9163         60
  14.1020         53
  14.2878         60
  14.4736         61
  14.6593         62
  14.8451         51
  15.0308         64
  15.2166         68
  15.4023         55
  15.5881         59
  15.7738         56
  15.9596         86
  16.1454         60
  16.3311         59
  16.5169         54
  16.7026         61
  16.8884         55
  17.0741         62
  17.2599         74
  17.4457         59
  17.6314         67
  17.8172         57
  18.0029         52
  18.1887         64
  18.3744         55
  18.5602         70
  18.7459         62
  18.9317         56
  19.1175         68
  19.3032         64
  19.4890         74
  19.6747         66
  19.8605         69
  20.0462         65
  20.2320         68
  20.4177         72
  20.6035         76
  20.7893         82
  20.9750         72
  21.1608         97
  21.3465        217
  21.5323         61
  21.7180         69
  21.9038         80
  22.0896         65
  22.2753         79
  22.4611         79
  22.6468         66
  22.8326         71
  23.0183         74
  23.2041         72
  23.3898         84
  23.5756         64
  23.7614         68
  23.9471         75
  24.1329         81
  24.3186         92
  24.5044         78
  24.6901         80
  24.8759         63
  25.0616         69
  25.2474         74
  25.4332         67
  25.6189         58
  25.8047         75
  25.9904         64
  26.1762         63
  26.3619         65
  26.5477         71
  26.7335         68
  26.9192         68
  27.1050         83
  27.2907         90
  27.4765         70
  27.6622         61
  27.8480         59
  28.0337         59
  28.2195         51
  28.4053         64
  28.5910         57
  28.7768         66
  28.9625         65
  29.1483         52
  29.3340         58
  29.5198         64
  29.7055         45
  29.8913         61
  30.0771         54
  30.2628         76
  30.4486         97
  30.6343         58
  30.8201         68
  31.0058         58
  31.1916         38
  31.3774         50
  31.5631         50
  31.7489         57
  31.9346         47
  32.1204         45
  32.3061         44
  32.4919         58
  32.6776         48
  32.8634         40
  33.0492         42
  33.2349         58
  33.4207         33
  33.6064         42
  33.7922         37
  33.9779         39
  34.1637         33
  34.3494         42
  34.5352         35
  34.7210         62
  34.9067         43
  35.0925         40
  35.2782         36
  35.4640         48
  35.6497         38
  35.8355         42
  36.0213         40
  36.2070         33
  36.3928         37
  36.5785         30
  36.7643         31
  36.9500         39
  37.1358         29
  37.3215         44
  37.5073         48
  37.6931         23
  37.8788         38
  38.0646         29
  38.2503         35
  38.4361         28
  38.6218         37
  38.8076         37
  38.9933         33
  39.1791         37
  39.3649         22
  39.5506         25
  39.7364         31
  39.9221         34
  40.1079         32
  40.2936         32
  40.4794         23
  40.6652         27
  40.8509         27
  41.0367         29
  41.2224         37
  41.4082         25
  41.5939         29
  41.7797         35
  41.9654         25
  42.1512         30
  42.3370         29
  42.5227         27
  42.7085         39
  42.8942         25
  43.0800         25
  43.2657         35
  43.4515         31
  43.6372         32
  43.8230         26
  44.0088         27
  44.1945         23
  44.3803         28
  44.5660         20
  44.7518         25
  44.9375         37
  45.1233         21
  45.3091         38
  45.4948         28
  45.6806         31
  45.8663         25
  46.0521         34
  46.2378         20
  46.4236         21
  46.6093         25
  46.7951         30
  46.9809         21
  47.1666         25
  47.3524         28
  47.5381         21
  47.7239         22
  47.9096         24
  48.0954         18
  48.2811         25
  48.4669         25
  48.6527         27
  48.8384         20
  49.0242         37
  49.2099         24
  49.3957         25
  49.5814         26
  49.7672         20
  49.9530         26
  50.1387         24
  50.3245         30
  50.5102         17
  50.6960         21
  50.8817         26
  51.0675         28
  51.2532         22
  51.4390         32
  51.6248         26
  51.8105         34
  51.9963         32
  52.1820         19
  52.3678          7
  52.5535         18
  52.7393         17
  52.9250         19
  53.1108         19
  53.2966         25
  53.4823         16
  53.6681         22
  53.8538         21
  54.0396         21
  54.2253         28
  54.4111         20
  54.5969         24
  54.7826         24
  54.9684         18
  55.1541         21
  55.3399         14
  55.5256         22
  55.7114         25
  55.8971         18
  56.0829         18
  56.2687         24
  56.4544         29
  56.6402         22
  56.8259         16
  57.0117         21
  57.1974         23
  57.3832         15
  57.5689         17
  57.7547         17
  57.9405         16
  58.1262         22
  58.3120         22
  58.4977         24
  58.6835         24
  58.8692         19
  59.0550         15
  59.2408         21
  59.4265         22
  59.6123          8
  59.7980         22
  59.9838         18
  60.0024         15

File: ML_20220720_11_SJD_4_LaB6-1min.uxd
; (content of file Y:\Sam\Apurva-07-20-2022\puck2\ML_20220720_11_SJD_0_LaB6-1min.raw)
_FILEVERSION = 3
_SAMPLE = ML_20220720_11_SJD_0_LaB6-1mi
_+SAMPLE =
_SITE = USA
_USER = Administrator
_GONIOMETER_CODE = 20
; Goniometer : D8 theta/2theta, stage : Unknown
_ATTACHMENTS_CODE = 0
_GONIOMETER_RADIUS = 200.5
_FIXED_DIVSLIT = 0.6
_FIXED_SAMPLESLIT = 0
_SOLLER_SLITS = 2
_FIXED_DETSLIT = 9.55
_MONOCHROMATOR = 0
; Incident beam monochromator : None
_SOLLER_SLITS_2 = N
_THIN_FILM = N
_BETA_FILTER = Y
_FIXED_ANTISLIT = 5.89
_ANALYZER_CODE = 0
; Received beam analyzer : None
_DATEMEASURED = "25-Jul-2022 18:06:49"
_WL_UNIT = A
_WL1 = 1.5406
_WL2 = 1.54439
_WL3 = 1.39222
_WLRATIO = 0.5
_ANODE = Cu
_V4_INF_CREATOR = XRDWizard
_V4_INF_CREATOR_VERSION = V2.9.0.22
_V4_INF_WIZARD_VERSION = V2.9.0.22
_V4_INF_WIZARD_ADDINS = V2.9.0.22
_V4_INF_WIZARD_DOCTYPE = XRD
_V4_INF_OSUSER = McQueenLab
_V4_INF_USER = Administrator
_V4_INF_SITE = USA
_V4_INF_SAMPLEID = ML_20220720_11_SJD_0_LaB6-1mi

; Data for range 1
_DRIVE = COUPLED
_STEPTIME = 4.23
_STEPSIZE = 0.0185756
_STEPMODE = C
_START = 5
_THETA = 2.5
_2THETA = 5
_KHI = 0
_PHI = 0
_X = 0
_Y = 0
_Z = 0
_DETECTOR = 5
; Detector type : Unknown
_DETECTORSLIT = unkn
_AUX1 = 0
_AUX2 = 0
_AUX3 = 0
_TIMESTARTED = 15
_TEMP_RATE = -1
_TEMP_DELAY = -1
_KV = 40
_MA = 40
_RANGE_WL = 1.5406
_3DPLANE = 0
_V4_ADDITIONALDETECTOR = 257
_V4_PSD2THETA = 3.3706
_V4_PSDCHANNEL1 = 0
_V4_PSDAPERTURE = 12.68
_V4_PSDTYPE = 5
_V4_PSDFIXED = 0
_V4_COUNTERS_MASK = 4096
_V4_DRIVES_MASK = 0
_V4_ENCODERS_MASK = 0
_2THETACOUNTS = 1
; 2THETA  PSD
   5.0000         93
   5.1858         90
   5.3715         69
   5.5573         55
   5.7430         78
   5.9288         58
   6.1145         69
   6.3003         83
   6.4860         59
   6.6718         44
   6.8576         58
   7.0433         48
   7.2291         58
   7.4148         51
   7.6006         65
   7.7863         51
   7.9721         68
   8.1579         83
   8.3436         58
   8.5294         74
   8.7151         73
   8.9009         71
   9.0866         85
   9.2724         70
   9.4581         66
   9.6439         72
   9.8297         81
  10.0154         90
  10.2012         88
  10.3869         80
  10.5727         88
  10.7584         81
  10.9442         95
  11.1299         82
  11.3157         83
  11.5015         79
  11.6872         86
  11.8730        104
  12.0587         83
  12.2445         65
  12.4302         83
  12.6160         76
  12.8018         63
  12.9875         68
  13.1733         80
  13.3590         72
  13.5448         77
  13.7305         58
  13.9163         78
  14.1020         66
  14.2878         76
  14.4736         63
  14.6593         70
  14.8451         90
  15.0308         60
  15.2166         49
  15.4023         56
  15.5881         64
  15.7738         48
  15.9596         68
  16.1454         71
  16.3311         64
  16.5169         71
  16.7026         65
  16.8884         70
  17.0741         58
  17.2599         68
  17.4457         57
  17.6314         52
  17.8172         65
  18.0029         59
  18.1887         65
  18.3744         67
  18.5602         65
  18.7459         76
  18.9317         79
  19.1175         77
  19.3032         60
  19.4890         60
  19.6747         70
  19.8605         62
  20.0462         59
  20.2320         65
  20.4177         78
  20.6035         60
  20.7893         57
  20.9750         63
  21.1608         91
  21.3465        190
  21.5323         64
  21.7180         67
  21.9038         81
  22.0896         66
  22.2753         75
  22.4611         68
  22.6468         75
  22.8326         85
  23.0183         88
  23.2041         71
  23.3898         66
  23.5756         76
  23.7614         86
  23.9471         69
  24.1329         83
  24.3186         80
  24.5044         80
  24.6901         73
  24.8759         60
  25.0616         62
  25.2474         68
  25.4332         56
  25.6189         67
  25.8047         66
  25.9904         72
  26.1762         64
  26.3619         67
  26.5477         84
  26.7335         73
  26.9192         55
  27.1050         67
  27.2907         68
  27.4765         70
  27.6622         70
  27.8480         93
  28.0337         71
  28.2195         61
  28.4053         63
  28.5910         62
  28.7768         66
  28.9625         61
  29.1483         39
  29.3340         60
  29.5198         56
  29.7055         57
  29.8913         35
  30.0771         55
  30.2628         56
  30.4486         82
  30.6343         54
  30.8201         51
  31.0058         48
  31.1916         54
  31.3774         48
  31.5631         49
  31.7489         41
  31.9346         52
  32.1204         41
  32.3061         44
  32.4919         51
  32.6776         58
  32.8634         48
  33.0492         43
  33.2349         48
  33.4207         34
  33.6064         43
  33.7922         40
  33.9779         52
  34.1637         35
  34.3494         39
  34.5352         45
  34.7210         65
  34.9067         34
  35.0925         44
  35.2782         40
  35.4640         42
  35.6497         37
  35.8355         41
  36.0213         42
  36.2070         34
  36.3928         34
  36.5785         45
  36.7643         33
  36.9500         37
  37.1358         36
  37.3215         36
  37.5073         43
  37.6931         29
  37.8788         32
  38.0646         26
  38.2503         27
  38.4361         35
  38.6218         27
  38.8076         24
  38.9933         32
  39.1791         27
  39.3649         30
  39.5506         47
  39.7364         20
  39.9221         23
  40.1079         34
  40.2936         22
  40.4794         31
  40.6652         37
  40.8509         18
  41.0367         21
  41.2224         28
  41.4082         23
  41.5939         31
  41.7797         28
  41.9654         24
  42.1512         28
  42.3370         35
  42.5227         22
  42.7085         26
  42.8942         29
  43.0800         25
  43.2657         38
  43.4515         23
  43.6372         34
  43.8230         28
  44.0088         26
  44.1945         23
  44.3803         28
  44.5660         28
  44.7518         37
  44.9375         36
  45.1233         23
  45.3091         21
  45.4948         21
  45.6806         24
  45.8663         21
  46.0521         31
  46.2378         18
  46.4236         24
  46.6093         26
  46.7951         29
  46.9809         18
  47.1666         18
  47.3524         22
  47.5381         22
  47.7239         24
  47.9096         21
  48.0954         22
  48.2811         22
  48.4669         28
  48.6527         21
  48.8384         26
  49.0242         34
  49.2099         23
  49.3957         19
  49.5814         15
  49.7672         26
  49.9530         21
  50.1387         31
  50.3245         26
  50.5102         15
  50.6960         18
  50.8817         28
  51.0675         17
  51.2532         24
  51.4390         31
  51.6248         32
  51.8105         19
  51.9963         26
  52.1820         22
  52.3678         23
  52.5535         21
  52.7393         33
  52.9250         20
  53.1108         28
  53.2966         14
  53.4823         23
  53.6681         32
  53.8538         22
  54.0396         27
  54.2253         24
  54.4111         23
  54.5969         25
  54.7826         27
  54.9684         21
  55.1541         22
  55.3399         19
  55.5256         20
  55.7114         23
  55.8971         23
  56.0829         24
  56.2687         22
  56.4544         25
  56.6402         24
  56.8259         33
  57.0117         22
  57.1974         23
  57.3832         21
  57.5689         25
  57.7547         25
  57.9405         31
  58.1262         16
  58.3120         22
  58.4977         20
  58.6835         18
  58.8692         13
  59.0550         21
  59.2408         18
  59.4265         11
  59.6123         25
  59.7980         21
  59.9838         21
  60.0024         16

File: ML_20220720_12_SJD_4_LaB6-1min.csv
;,2THETA,
5.0000,102
5.1858,103
5.3715,84
5.5573,77
5.7430,73
5.9288,83
6.1145,74
6.3003,59
6.4860,77
6.6718,77
6.8576,58
7.0433,66
7.2291,65
7.4148,76
7.6006,48
7.7863,62
7.9721,48
8.1579,66
8.3436,77
8.5294,71
8.7151,69
8.9009,74
9.0866,70
9.2724,86
9.4581,90
9.6439,76
9.8297,80
10.0154,84
10.2012,94
10.3869,93
10.5727,75
10.7584,88
10.9442,84
11.1299,102
11.3157,77
11.5015,98
11.6872,75
11.8730,80
12.0587,82
12.2445,78
12.4302,81
12.6160,89
12.8018,64
12.9875,74
13.1733,80
13.3590,92
13.5448,81
13.7305,70
13.9163,63
14.1020,71
14.2878,76
14.4736,60
14.6593,53
14.8451,50
15.0308,55
15.2166,48
15.4023,66
15.5881,68
15.7738,61
15.9596,60
16.1454,66
16.3311,59
16.5169,62
16.7026,51
16.8884,52
17.0741,73
17.2599,53
17.4457,69
17.6314,62
17.8172,73
18.0029,67
18.1887,68
18.3744,50
18.5602,68
18.7459,60
18.9317,64
19.1175,74
19.3032,52
19.4890,67
19.6747,49
19.8605,72
20.0462,74
20.2320,66
20.4177,69
20.6035,63
20.7893,63
20.9750,74
21.1608,100
21.3465,189
21.5323,65
21.7180,92
21.9038,74
22.0896,77
22.2753,78
22.4611,67
22.6468,51
22.8326,84
23.0183,57
23.2041,79
23.3898,75
23.5756,78
23.7614,67
23.9471,73
24.1329,61
24.3186,78
24.5044,58
24.6901,60
24.8759,52
25.0616,70
25.2474,55
25.4332,70
25.6189,80
25.8047,74
25.9904,75
26.1762,69
26.3619,78
26.5477,74
26.7335,77
26.9192,78
27.1050,65
27.2907,69
27.4765,66
27.6622,68
27.8480,55
28.0337,76
28.2195,58
28.4053,68
28.5910,67
28.7768,54
28.9625,53
29.1483,64
29.3340,59
29.5198,55
29.7055,71
29.8913,51
30.0771,58
30.2628,73
30.4486,80
30.6343,59
30.8201,65
31.0058,53
31.1916,45
31.3774,52
31.5631,52
31.7489,54
31.9346,62
32.1204,54
32.3061,57
32.4919,60
32.6776,48
32.8634,46
33.0492,50
33.2349,35
33.4207,39
33.6064,47
33.7922,40
33.9779,43
34.1637,34
34.3494,44
34.5352,43
34.7210,44
34.9067,48
35.0925,41
35.2782,34
35.4640,47
35.6497,36
35.8355,41
36.0213,28
36.2070,32
36.3928,36
36.5785,35
36.7643,32
36.9500,25
37.1358,32
37.3215,37
37.5073,48
37.6931,33
37.8788,26
38.0646,28
38.2503,33
38.4361,33
38.6218,29
38.8076,36
38.9933,24
39.1791,30
39.3649,21
39.5506,23
39.7364,27
39.9221,34
40.1079,31
40.2936,31
40.4794,27
40.6652,29
40.8509,27
41.0367,30
41.2224,24
41.4082,33
41.5939,24
41.7797,32
41.9654,29
42.1512,27
42.3370,23
42.5227,21
42.7085,20
42.8942,22
43.0800,28
43.2657,28
43.4515,37
43.6372,43
43.8230,28
44.0088,25
44.1945,31
44.3803,25
44.5660,28
44.7518,30
44.9375,20
45.1233,19
45.3091,26
45.4948,31
45.6806,21
45.8663,20
46.0521,23
46.2378,23
46.4236,30
46.6093,19
46.7951,26
46.9809,24
47.1666,18
47.3524,25
47.5381,16
47.7239,24
47.9096,18
48.0954,22
48.2811,27
48.4669,18
48.6527,16
48.8384,25
49.0242,25
49.2099,21
49.3957,18
49.5814,20
49.7672,24
49.9530,21
50.1387,21
50.3245,25
50.5102,21
50.6960,23
50.8817,20
51.0675,19
51.2532,23
51.4390,25
51.6248,32
51.8105,26
51.9963,31
52.1820,21
52.3678,26
52.5535,18
52.7393,22
52.9250,23
53.1108,22
53.2966,21
53.4823,20
53.6681,24
53.8538,18
54.0396,26
54.2253,23
54.4111,18
54.5969,24
54.7826,29
54.9684,19
55.1541,15
55.3399,17
55.5256,23
55.7114,15
55.8971,24
56.0829,14
56.2687,22
56.4544,19
56.6402,13
56.8259,23
57.0117,18
57.1974,18
57.3832,35
57.5689,19
57.7547,19
57.9405,20
58.1262,17
58.3120,20
58.4977,16
58.6835,14
58.8692,18
59.0550,22
59.2408,16
59.4265,22
59.6123,20
59.7980,19
59.9838,21
60.0024,23

File: ML_20220720_13_SJD_4_LaB6-1min.csv
;,2THETA,
5.0000,103
5.1858,86
5.3715,85
5.5573,90
5.7430,86
5.9288,81
6.1145,78
6.3003,60
6.4860,71
6.6718,73
6.8576,55
7.0433,45
7.2291,56
7.4148,61
7.6006,63
7.7863,77
7.9721,58
8.1579,68
8.3436,76
8.5294,76
8.7151,91
8.9009,73
9.0866,83
9.2724,70
9.4581,81
9.6439,89
9.8297,88
10.0154,78
10.2012,99
10.3869,89
10.5727,85
10.7584,85
10.9442,91
11.1299,92
11.3157,87
11.5015,86
11.6872,95
11.8730,79
12.0587,88
12.2445,85
12.4302,88
12.6160,86
12.8018,74
12.9875,83
13.1733,77
13.3590,68
13.5448,61
13.7305,62
13.9163,67
14.1020,63
14.2878,89
14.4736,58
14.6593,58
14.8451,58
15.0308,64
15.2166,66
15.4023,60
15.5881,66
15.7738,65
15.9596,46
16.1454,65
16.3311,57
16.5169,79
16.7026,52
16.8884,60
17.0741,64
17.2599,67
17.4457,64
17.6314,50
17.8172,71
18.0029,62
18.1887,46
18.3744,56
18.5602,58
18.7459,69
18.9317,57
19.1175,60
19.3032,53
19.4890,70
19.6747,70
19.8605,71
20.0462,73
20.2320,67
20.4177,65
20.6035,53
20.7893,63
20.9750,77
21.1608,92
21.3465,181
21.5323,80
21.7180,88
21.9038,69
22.0896,69
22.2753,62
22.4611,92
22.6468,63
22.8326,66
23.0183,73
23.2041,69
23.3898,64
23.5756,83
23.7614,73
23.9471,81
24.1329,51
24.3186,86
24.5044,73
24.6901,57
24.8759,67
25.0616,72
25.2474,53
25.4332,70
25.6189,67
25.8047,76
25.9904,60
26.1762,47
26.3619,69
26.5477,86
26.7335,64
26.9192,68
27.1050,77
27.2907,74
27.4765,60
27.6622,49
27.8480,66
28.0337,74
28.2195,62
28.4053,58
28.5910,60
28.7768,53
28.9625,59
29.1483,58
29.3340,56
29.5198,52
29.7055,58
29.8913,43
30.0771,66
30.2628,55
30.4486,101
30.6343,47
30.8201,58
31.0058,59
31.1916,52
31.3774,70
31.5631,61
31.7489,46
31.9346,57
32.1204,48
32.3061,60
32.4919,54
32.6776,45
32.8634,35
33.0492,45
33.2349,56
33.4207,47
33.6064,51
33.7922,39
33.9779,48
34.1637,31
34.3494,42
34.5352,28
34.7210,56
34.9067,46
35.0925,40
35.2782,38
35.4640,35
35.6497,35
35.8355,29
36.0213,24
36.2070,30
36.3928,35
36.5785,41
36.7643,29
36.9500,38
37.1358,40
37.3215,33
37.5073,52
37.6931,30
37.8788,19
38.0646,18
38.2503,36
38.4361,28
38.6218,29
38.8076,18
38.9933,23
39.1791,44
39.3649,29
39.5506,22
39.7364,26
39.9221,32
40.1079,30
40.2936,32
40.4794,23
40.6652,29
40.8509,32
41.0367,32
41.2224,29
41.4082,36
41.5939,25
41.7797,34
41.9654,29
42.1512,22
42.3370,22
42.5227,16
42.7085,31
42.8942,27
43.0800,28
43.2657,33
43.4515,27
43.6372,38
43.8230,27
44.0088,34
44.1945,30
44.3803,30
44.5660,34
44.7518,28
44.9375,26
45.1233,19
45.3091,24
45.4948,32
45.6806,28
45.8663,40
46.0521,32
46.2378,16
46.4236,28
46.6093,21
46.7951,25
46.9809,23
47.1666,20
47.3524,21
47.5381,23
47.7239,15
47.9096,11
48.0954,29
48.2811,25
48.4669,26
48.6527,18
48.8384,18
49.0242,18
49.2099,25
49.3957,22
49.5814,18
49.7672,20
49.9530,19
50.1387,27
50.3245,24
50.5102,20
50.6960,22
50.8817,21
51.0675,20
51.2532,22
51.4390,28
51.6248,26
51.8105,21
51.9963,15
52.1820,21
52.3678,24
52.5535,12
52.7393,17
52.9250,21
53.1108,19
53.2966,25
53.4823,21
53.6681,19
53.8538,19
54.0396,28
54.2253,35
54.4111,24
54.5969,18
54.7826,16
54.9684,23
55.1541,15
55.3399,20
55.5256,21
55.7114,15
55.8971,21
56.0829,23
56.2687,23
56.4544,19
56.6402,23
56.8259,19
57.0117,27
57.1974,23
57.3832,14
57.5689,24
57.7547,26
57.9405,21
58.1262,19
58.3120,16
58.4977,20
58.6835,26
58.8692,14
59.0550,22
59.2408,19
59.4265,20
59.6123,17
59.7980,20
59.9838,21
60.0024,16