Folder: xrd_clustering/notebooks/data/xrd_data (part 21)

File: ML_20220718_54_SJD_4_LaB6-2min.uxd
; (content of file Y:\Sam\Apurva-07-20-2022\puck4\ML_20220718_54_SJD_4_LaB6-2min.raw)
_FILEVERSION = 3
_SAMPLE = ML_20220718_54_SJD_4_LaB6-2min
_+SAMPLE =
_SITE = USA
_USER = Administrator
_GONIOMETER_CODE = 20
; Goniometer : D8 theta/2theta, stage : Unknown
_ATTACHMENTS_CODE = 0
_GONIOMETER_RADIUS = 200.5
_FIXED_DIVSLIT = 0.6
_FIXED_SAMPLESLIT = 0
_SOLLER_SLITS = 2
_FIXED_DETSLIT = 9.55
_MONOCHROMATOR = 0
; Incident beam monochromator : None
_SOLLER_SLITS_2 = N
_THIN_FILM = N
_BETA_FILTER = Y
_FIXED_ANTISLIT = 5.89
_ANALYZER_CODE = 0
; Received beam analyzer : None
_DATEMEASURED = "26-Jul-2022 12:37:12"
_WL_UNIT = A
_WL1 = 1.5406
_WL2 = 1.54439
_WL3 = 1.39222
_WLRATIO = 0.5
_ANODE = Cu
_V4_INF_CREATOR = XRDWizard
_V4_INF_CREATOR_VERSION = V2.9.0.22
_V4_INF_WIZARD_VERSION = V2.9.0.22
_V4_INF_WIZARD_ADDINS = V2.9.0.22
_V4_INF_WIZARD_DOCTYPE = XRD
_V4_INF_OSUSER = McQueenLab
_V4_INF_USER = Administrator
_V4_INF_SITE = USA
_V4_INF_SAMPLEID = ML_20220718_54_SJD_4_LaB6-2min

; Data for range 1
_DRIVE = COUPLED
_STEPTIME = 5.64
_STEPSIZE = 0.0185756
_STEPMODE = C
_START = 5
_THETA = 2.5
_2THETA = 5
_KHI = 0
_PHI = 0
_X = 0
_Y = 0
_Z = 0
_DETECTOR = 5
; Detector type : Unknown
_DETECTORSLIT = unkn
_AUX1 = 0
_AUX2 = 0
_AUX3 = 0
_TIMESTARTED = 15
_TEMP_RATE = -1
_TEMP_DELAY = -1
_KV = 40
_MA = 40
_RANGE_WL = 1.5406
_3DPLANE = 0
_V4_ADDITIONALDETECTOR = 257
_V4_PSD2THETA = 3.3706
_V4_PSDCHANNEL1 = 0
_V4_PSDAPERTURE = 12.68
_V4_PSDTYPE = 5
_V4_PSDFIXED = 0
_V4_COUNTERS_MASK = 4096
_V4_DRIVES_MASK = 0
_V4_ENCODERS_MASK = 0
_2THETACOUNTS = 1
; 2THETA  PSD
   5.0000        114
   5.1858        132
   5.3715        106
   5.5573        106
   5.7430        123
   5.9288        100
   6.1145         93
   6.3003         90
   6.4860         95
   6.6718         83
   6.8576         83
   7.0433         63
   7.2291         66
   7.4148         79
   7.6006         81
   7.7863         99
   7.9721         86
   8.1579         82
   8.3436        103
   8.5294        102
   8.7151        106
   8.9009        103
   9.0866        101
   9.2724        109
   9.4581        117
   9.6439        104
   9.8297        126
  10.0154        107
  10.2012        126
  10.3869        108
  10.5727        119
  10.7584        116
  10.9442        139
  11.1299        125
  11.3157        121
  11.5015        106
  11.6872        113
  11.8730        123
  12.0587         94
  12.2445        111
  12.4302        111
  12.6160         94
  12.8018        106
  12.9875         69
  13.1733        104
  13.3590         97
  13.5448         75
  13.7305         96
  13.9163         82
  14.1020        108
  14.2878         81
  14.4736         95
  14.6593         91
  14.8451         92
  15.0308         85
  15.2166         88
  15.4023         81
  15.5881         80
  15.7738         81
  15.9596         91
  16.1454         78
  16.3311         59
  16.5169         84
  16.7026         83
  16.8884         95
  17.0741         81
  17.2599         63
  17.4457         95
  17.6314         90
  17.8172         73
  18.0029         82
  18.1887         84
  18.3744         81
  18.5602         79
  18.7459         64
  18.9317         82
  19.1175         83
  19.3032         97
  19.4890        101
  19.6747         77
  19.8605         79
  20.0462         83
  20.2320        101
  20.4177        107
  20.6035         85
  20.7893         69
  20.9750        113
  21.1608        111
  21.3465        237
  21.5323         95
  21.7180         86
  21.9038        106
  22.0896        111
  22.2753         89
  22.4611         98
  22.6468        103
  22.8326         91
  23.0183        113
  23.2041         83
  23.3898        104
  23.5756        104
  23.7614         97
  23.9471        107
  24.1329         97
  24.3186        103
  24.5044         93
  24.6901        102
  24.8759         93
  25.0616         89
  25.2474         95
  25.4332        101
  25.6189        105
  25.8047         78
  25.9904         73
  26.1762         87
  26.3619        113
  26.5477         98
  26.7335        102
  26.9192         93
  27.1050        100
  27.2907        105
  27.4765        106
  27.6622         92
  27.8480         81
  28.0337         89
  28.2195         78
  28.4053         93
  28.5910         70
  28.7768         90
  28.9625         91
  29.1483         89
  29.3340         92
  29.5198         75
  29.7055         72
  29.8913         85
  30.0771         73
  30.2628         67
  30.4486        117
  30.6343         69
  30.8201         66
  31.0058         69
  31.1916         69
  31.3774         69
  31.5631         69
  31.7489         60
  31.9346         64
  32.1204         56
  32.3061         59
  32.4919         72
  32.6776         56
  32.8634         57
  33.0492         58
  33.2349         62
  33.4207         58
  33.6064         44
  33.7922         55
  33.9779         41
  34.1637         74
  34.3494         62
  34.5352         72
  34.7210         61
  34.9067         65
  35.0925         59
  35.2782         51
  35.4640         42
  35.6497         50
  35.8355         56
  36.0213         49
  36.2070         49
  36.3928         38
  36.5785         44
  36.7643         39
  36.9500         46
  37.1358         52
  37.3215         46
  37.5073         45
  37.6931         49
  37.8788         43
  38.0646         41
  38.2503         47
  38.4361         36
  38.6218         30
  38.8076         44
  38.9933         30
  39.1791         41
  39.3649         32
  39.5506         41
  39.7364         41
  39.9221         39
  40.1079         30
  40.2936         41
  40.4794         34
  40.6652         32
  40.8509         50
  41.0367         44
  41.2224         40
  41.4082         36
  41.5939         38
  41.7797         37
  41.9654         31
  42.1512         31
  42.3370         25
  42.5227         32
  42.7085         34
  42.8942         40
  43.0800         48
  43.2657         51
  43.4515         41
  43.6372         52
  43.8230         23
  44.0088         34
  44.1945         33
  44.3803         38
  44.5660         33
  44.7518         33
  44.9375         33
  45.1233         44
  45.3091         35
  45.4948         36
  45.6806         32
  45.8663         28
  46.0521         34
  46.2378         34
  46.4236         29
  46.6093         37
  46.7951         29
  46.9809         23
  47.1666         32
  47.3524         32
  47.5381         30
  47.7239         34
  47.9096         40
  48.0954         30
  48.2811         31
  48.4669         33
  48.6527         26
  48.8384         40
  49.0242         33
  49.2099         23
  49.3957         28
  49.5814         24
  49.7672         30
  49.9530         35
  50.1387         29
  50.3245         38
  50.5102         35
  50.6960         39
  50.8817         22
  51.0675         29
  51.2532         28
  51.4390         36
  51.6248         27
  51.8105         33
  51.9963         28
  52.1820         29
  52.3678         21
  52.5535         33
  52.7393         20
  52.9250         32
  53.1108         17
  53.2966         31
  53.4823         27
  53.6681         24
  53.8538         32
  54.0396         33
  54.2253         34
  54.4111         29
  54.5969         19
  54.7826         27
  54.9684         22
  55.1541         31
  55.3399         33
  55.5256         24
  55.7114         20
  55.8971         33
  56.0829         20
  56.2687         35
  56.4544         31
  56.6402         30
  56.8259         27
  57.0117         28
  57.1974         32
  57.3832         32
  57.5689         31
  57.7547         30
  57.9405         28
  58.1262         22
  58.3120         31
  58.4977         38
  58.6835         19
  58.8692         33
  59.0550         30
  59.2408         29
  59.4265         26
  59.6123         34
  59.7980         22
  59.9838         31
  60.0024         22

File: ML_20220718_54_SJD_4_LaB6-4min.uxd
; (content of file Y:\Sam\Apurva-07-20-2022\puck4\ML_20220718_54_SJD_4_LaB6-4min.raw)
_FILEVERSION = 3
_SAMPLE = ML_20220718_54_SJD_4_LaB6-4min
_+SAMPLE =
_SITE = USA
_USER = Administrator
_GONIOMETER_CODE = 20
; Goniometer : D8 theta/2theta, stage : Unknown
_ATTACHMENTS_CODE = 0
_GONIOMETER_RADIUS = 200.5
_FIXED_DIVSLIT = 0.6
_FIXED_SAMPLESLIT = 0
_SOLLER_SLITS = 2
_FIXED_DETSLIT = 9.55
_MONOCHROMATOR = 0
; Incident beam monochromator : None
_SOLLER_SLITS_2 = N
_THIN_FILM = N
_BETA_FILTER = Y
_FIXED_ANTISLIT = 5.89
_ANALYZER_CODE = 0
; Received beam analyzer : None
_DATEMEASURED = "26-Jul-2022 14:18:41"
_WL_UNIT = A
_WL1 = 1.5406
_WL2 = 1.54439
_WL3 = 1.39222
_WLRATIO = 0.5
_ANODE = Cu
_V4_INF_CREATOR = XRDWizard
_V4_INF_CREATOR_VERSION = V2.9.0.22
_V4_INF_WIZARD_VERSION = V2.9.0.22
_V4_INF_WIZARD_ADDINS = V2.9.0.22
_V4_INF_WIZARD_DOCTYPE = XRD
_V4_INF_OSUSER = McQueenLab
_V4_INF_USER = Administrator
_V4_INF_SITE = USA
_V4_INF_SAMPLEID = ML_20220718_54_SJD_4_LaB6-4min

; Data for range 1
_DRIVE = COUPLED
_STEPTIME = 11.28
_STEPSIZE = 0.0185756
_STEPMODE = C
_START = 5
_THETA = 2.5
_2THETA = 5
_KHI = 0
_PHI = 0
_X = 0
_Y = 0
_Z = 0
_DETECTOR = 5
; Detector type : Unknown
_DETECTORSLIT = unkn
_AUX1 = 0
_AUX2 = 0
_AUX3 = 0
_TIMESTARTED = 14
_TEMP_RATE = -1
_TEMP_DELAY = -1
_KV = 40
_MA = 40
_RANGE_WL = 1.5406
_3DPLANE = 0
_V4_ADDITIONALDETECTOR = 257
_V4_PSD2THETA = 3.3878
_V4_PSDCHANNEL1 = 0
_V4_PSDAPERTURE = 12.68
_V4_PSDTYPE = 5
_V4_PSDFIXED = 0
_V4_COUNTERS_MASK = 4096
_V4_DRIVES_MASK = 0
_V4_ENCODERS_MASK = 0
_2THETACOUNTS = 1
; 2THETA  PSD
   5.0000        292
   5.1858        247
   5.3715        239
   5.5573        218
   5.7430        218
   5.9288        219
   6.1145        204
   6.3003        199
   6.4860        156
   6.6718        151
   6.8576        172
   7.0433        159
   7.2291        170
   7.4148        146
   7.6006        190
   7.7863        182
   7.9721        176
   8.1579        205
   8.3436        201
   8.5294        199
   8.7151        212
   8.9009        216
   9.0866        207
   9.2724        218
   9.4581        219
   9.6439        224
   9.8297        214
  10.0154        258
  10.2012        252
  10.3869        234
  10.5727        241
  10.7584        248
  10.9442        229
  11.1299        237
  11.3157        225
  11.5015        247
  11.6872        235
  11.8730        196
  12.0587        210
  12.2445        206
  12.4302        219
  12.6160        203
  12.8018        220
  12.9875        198
  13.1733        188
  13.3590        178
  13.5448        214
  13.7305        194
  13.9163        184
  14.1020        181
  14.2878        191
  14.4736        168
  14.6593        160
  14.8451        176
  15.0308        143
  15.2166        181
  15.4023        169
  15.5881        141
  15.7738        148
  15.9596        175
  16.1454        147
  16.3311        165
  16.5169        158
  16.7026        163
  16.8884        163
  17.0741        151
  17.2599        153
  17.4457        170
  17.6314        165
  17.8172        160
  18.0029        169
  18.1887        177
  18.3744        181
  18.5602        137
  18.7459        181
  18.9317        153
  19.1175        162
  19.3032        166
  19.4890        177
  19.6747        190
  19.8605        149
  20.0462        170
  20.2320        191
  20.4177        153
  20.6035        175
  20.7893        193
  20.9750        177
  21.1608        256
  21.3465        499
  21.5323        182
  21.7180        171
  21.9038        195
  22.0896        204
  22.2753        213
  22.4611        200
  22.6468        185
  22.8326        197
  23.0183        221
  23.2041        216
  23.3898        192
  23.5756        217
  23.7614        198
  23.9471        232
  24.1329        205
  24.3186        221
  24.5044        194
  24.6901        206
  24.8759        211
  25.0616        225
  25.2474        187
  25.4332        175
  25.6189        190
  25.8047        211
  25.9904        216
  26.1762        173
  26.3619        185
  26.5477        186
  26.7335        171
  26.9192        204
  27.1050        175
  27.2907        207
  27.4765        170
  27.6622        180
  27.8480        187
  28.0337        185
  28.2195        187
  28.4053        182
  28.5910        175
  28.7768        168
  28.9625        176
  29.1483        183
  29.3340        184
  29.5198        149
  29.7055        155
  29.8913        156
  30.0771        152
  30.2628        166
  30.4486        229
  30.6343        154
  30.8201        137
  31.0058        150
  31.1916        144
  31.3774        133
  31.5631        132
  31.7489        152
  31.9346        122
  32.1204        143
  32.3061        131
  32.4919        159
  32.6776        167
  32.8634        141
  33.0492        118
  33.2349        120
  33.4207        110
  33.6064        108
  33.7922         93
  33.9779        110
  34.1637        116
  34.3494        138
  34.5352        129
  34.7210        140
  34.9067        126
  35.0925         96
  35.2782         89
  35.4640        107
  35.6497        101
  35.8355        104
  36.0213        105
  36.2070         86
  36.3928         78
  36.5785        106
  36.7643         87
  36.9500         92
  37.1358         86
  37.3215        101
  37.5073        116
  37.6931         75
  37.8788         82
  38.0646         87
  38.2503         83
  38.4361         90
  38.6218         94
  38.8076         97
  38.9933         78
  39.1791         89
  39.3649         66
  39.5506         84
  39.7364         92
  39.9221         70
  40.1079         83
  40.2936         82
  40.4794         63
  40.6652         73
  40.8509         94
  41.0367         82
  41.2224         82
  41.4082         80
  41.5939         91
  41.7797         66
  41.9654         71
  42.1512         67
  42.3370         80
  42.5227         78
  42.7085         66
  42.8942         73
  43.0800         75
  43.2657         70
  43.4515         95
  43.6372        104
  43.8230         79
  44.0088         69
  44.1945         77
  44.3803         73
  44.5660         90
  44.7518         66
  44.9375         67
  45.1233         83
  45.3091         77
  45.4948         71
  45.6806         87
  45.8663         59
  46.0521         76
  46.2378         77
  46.4236         56
  46.6093         71
  46.7951         72
  46.9809         74
  47.1666         68
  47.3524         62
  47.5381         67
  47.7239         70
  47.9096         63
  48.0954         61
  48.2811         66
  48.4669         53
  48.6527         58
  48.8384         77
  49.0242         78
  49.2099         66
  49.3957         67
  49.5814         61
  49.7672         64
  49.9530         62
  50.1387         60
  50.3245         49
  50.5102         61
  50.6960         55
  50.8817         52
  51.0675         59
  51.2532         61
  51.4390         84
  51.6248         74
  51.8105         53
  51.9963         60
  52.1820         70
  52.3678         64
  52.5535         52
  52.7393         43
  52.9250         62
  53.1108         66
  53.2966         54
  53.4823         66
  53.6681         63
  53.8538         60
  54.0396         56
  54.2253         67
  54.4111         62
  54.5969         59
  54.7826         52
  54.9684         60
  55.1541         50
  55.3399         56
  55.5256         71
  55.7114         52
  55.8971         54
  56.0829         79
  56.2687         71
  56.4544         60
  56.6402         69
  56.8259         57
  57.0117         70
  57.1974         59
  57.3832         63
  57.5689         56
  57.7547         53
  57.9405         57
  58.1262         62
  58.3120         55
  58.4977         59
  58.6835         61
  58.8692         43
  59.0550         53
  59.2408         52
  59.4265         45
  59.6123         50
  59.7980         60
  59.9838         48
  60.0024         68

File: ML_20220718_55_SJD_4_LaB6-1min.uxd
; (content of file Y:\Sam\Apurva-07-20-2022\puck4\ML_20220718_55_SJD_4_LaB6-1min.raw)
_FILEVERSION = 3
_SAMPLE = ML_20220718_55_SJD_4_LaB6-1min
_+SAMPLE =
_SITE = USA
_USER = Administrator
_GONIOMETER_CODE = 20
; Goniometer : D8 theta/2theta, stage : Unknown
_ATTACHMENTS_CODE = 0
_GONIOMETER_RADIUS = 200.5
_FIXED_DIVSLIT = 0.6
_FIXED_SAMPLESLIT = 0
_SOLLER_SLITS = 2
_FIXED_DETSLIT = 9.55
_MONOCHROMATOR = 0
; Incident beam monochromator : None
_SOLLER_SLITS_2 = N
_THIN_FILM = N
_BETA_FILTER = Y
_FIXED_ANTISLIT = 5.89
_ANALYZER_CODE = 0
; Received beam analyzer : None
_DATEMEASURED = "26-Jul-2022 10:58:43"
_WL_UNIT = A
_WL1 = 1.5406
_WL2 = 1.54439
_WL3 = 1.39222
_WLRATIO = 0.5
_ANODE = Cu
_V4_INF_CREATOR = XRDWizard
_V4_INF_CREATOR_VERSION = V2.9.0.22
_V4_INF_WIZARD_VERSION = V2.9.0.22
_V4_INF_WIZARD_ADDINS = V2.9.0.22
_V4_INF_WIZARD_DOCTYPE = XRD
_V4_INF_OSUSER = McQueenLab
_V4_INF_USER = Administrator
_V4_INF_SITE = USA
_V4_INF_SAMPLEID = ML_20220718_55_SJD_4_LaB6-1min

; Data for range 1
_DRIVE = COUPLED
_STEPTIME = 4.23
_STEPSIZE = 0.0185756
_STEPMODE = C
_START = 5
_THETA = 2.5
_2THETA = 5
_KHI = 0
_PHI = 0
_X = 0
_Y = 0
_Z = 0
_DETECTOR = 5
; Detector type : Unknown
_DETECTORSLIT = unkn
_AUX1 = 0
_AUX2 = 0
_AUX3 = 0
_TIMESTARTED = 15
_TEMP_RATE = -1
_TEMP_DELAY = -1
_KV = 40
_MA = 40
_RANGE_WL = 1.5406
_3DPLANE = 0
_V4_ADDITIONALDETECTOR = 257
_V4_PSD2THETA = 3.387
_V4_PSDCHANNEL1 = 0
_V4_PSDAPERTURE = 12.68
_V4_PSDTYPE = 5
_V4_PSDFIXED = 0
_V4_COUNTERS_MASK = 4096
_V4_DRIVES_MASK = 0
_V4_ENCODERS_MASK = 0
_2THETACOUNTS = 1
; 2THETA  PSD
   5.0000        104
   5.1858         98
   5.3715        109
   5.5573         62
   5.7430         79
   5.9288         59
   6.1145         71
   6.3003         66
   6.4860         71
   6.6718         77
   6.8576         68
   7.0433         57
   7.2291         59
   7.4148         64
   7.6006         59
   7.7863         83
   7.9721         63
   8.1579         66
   8.3436         63
   8.5294         78
   8.7151         76
   8.9009         70
   9.0866         68
   9.2724        104
   9.4581         91
   9.6439         92
   9.8297         91
  10.0154         96
  10.2012        100
  10.3869         83
  10.5727         78
  10.7584         71
  10.9442         64
  11.1299         80
  11.3157         96
  11.5015        114
  11.6872         82
  11.8730        100
  12.0587         83
  12.2445         82
  12.4302         78
  12.6160         65
  12.8018         76
  12.9875         86
  13.1733         82
  13.3590         65
  13.5448         71
  13.7305         68
  13.9163         60
  14.1020         64
  14.2878         71
  14.4736         59
  14.6593         57
  14.8451         53
  15.0308         52
  15.2166         58
  15.4023         50
  15.5881         65
  15.7738         58
  15.9596         65
  16.1454         39
  16.3311         59
  16.5169         58
  16.7026         60
  16.8884         61
  17.0741         75
  17.2599         65
  17.4457         52
  17.6314         60
  17.8172         63
  18.0029         53
  18.1887         74
  18.3744         57
  18.5602         66
  18.7459         57
  18.9317         54
  19.1175         74
  19.3032         69
  19.4890         74
  19.6747         65
  19.8605         69
  20.0462         68
  20.2320         45
  20.4177         68
  20.6035         71
  20.7893         57
  20.9750         83
  21.1608         88
  21.3465        152
  21.5323         53
  21.7180         72
  21.9038         77
  22.0896         60
  22.2753         76
  22.4611         76
  22.6468         59
  22.8326         72
  23.0183         72
  23.2041         75
  23.3898         69
  23.5756         73
  23.7614         83
  23.9471         75
  24.1329         92
  24.3186         73
  24.5044         65
  24.6901         78
  24.8759         80
  25.0616         63
  25.2474         80
  25.4332         78
  25.6189         77
  25.8047         59
  25.9904         68
  26.1762         81
  26.3619         74
  26.5477         82
  26.7335         62
  26.9192         74
  27.1050         74
  27.2907         76
  27.4765         81
  27.6622         64
  27.8480         75
  28.0337         66
  28.2195         60
  28.4053         56
  28.5910         64
  28.7768         53
  28.9625         41
  29.1483         67
  29.3340         58
  29.5198         67
  29.7055         50
  29.8913         57
  30.0771         61
  30.2628         43
  30.4486        111
  30.6343         58
  30.8201         43
  31.0058         65
  31.1916         53
  31.3774         40
  31.5631         58
  31.7489         48
  31.9346         43
  32.1204         53
  32.3061         43
  32.4919         73
  32.6776         40
  32.8634         55
  33.0492         38
  33.2349         38
  33.4207         40
  33.6064         35
  33.7922         38
  33.9779         44
  34.1637         40
  34.3494         48
  34.5352         42
  34.7210         55
  34.9067         54
  35.0925         43
  35.2782         47
  35.4640         50
  35.6497         27
  35.8355         32
  36.0213         42
  36.2070         30
  36.3928         48
  36.5785         32
  36.7643         38
  36.9500         35
  37.1358         29
  37.3215         27
  37.5073         44
  37.6931         37
  37.8788         30
  38.0646         35
  38.2503         28
  38.4361         31
  38.6218         35
  38.8076         29
  38.9933         28
  39.1791         33
  39.3649         28
  39.5506         28
  39.7364         24
  39.9221         18
  40.1079         29
  40.2936         22
  40.4794         24
  40.6652         29
  40.8509         31
  41.0367         31
  41.2224         33
  41.4082         28
  41.5939         19
  41.7797         29
  41.9654         26
  42.1512         29
  42.3370         25
  42.5227         31
  42.7085         27
  42.8942         24
  43.0800         30
  43.2657         27
  43.4515         33
  43.6372         28
  43.8230         21
  44.0088         25
  44.1945         30
  44.3803         23
  44.5660         20
  44.7518         32
  44.9375         25
  45.1233         16
  45.3091         18
  45.4948         22
  45.6806         34
  45.8663         24
  46.0521         31
  46.2378         22
  46.4236         12
  46.6093         20
  46.7951         25
  46.9809         23
  47.1666         25
  47.3524         28
  47.5381         22
  47.7239         26
  47.9096         31
  48.0954         28
  48.2811         15
  48.4669         26
  48.6527         26
  48.8384         16
  49.0242         21
  49.2099         23
  49.3957         27
  49.5814         22
  49.7672         18
  49.9530         23
  50.1387         28
  50.3245         20
  50.5102         27
  50.6960         21
  50.8817         22
  51.0675         26
  51.2532         30
  51.4390         30
  51.6248         26
  51.8105         22
  51.9963         27
  52.1820         21
  52.3678         26
  52.5535         17
  52.7393         14
  52.9250         18
  53.1108         28
  53.2966         18
  53.4823         22
  53.6681         21
  53.8538         24
  54.0396         23
  54.2253         32
  54.4111         22
  54.5969         24
  54.7826         20
  54.9684         20
  55.1541         21
  55.3399         19
  55.5256         20
  55.7114         19
  55.8971          9
  56.0829         14
  56.2687         23
  56.4544         21
  56.6402         26
  56.8259         27
  57.0117         19
  57.1974         13
  57.3832         21
  57.5689         31
  57.7547         20
  57.9405         27
  58.1262         19
  58.3120         28
  58.4977         19
  58.6835         16
  58.8692         19
  59.0550         12
  59.2408         21
  59.4265         23
  59.6123         24
  59.7980         24
  59.9838         23
  60.0024         21