Folder: xrd_clustering/notebooks/data/xrd_data (part 43)

File: ML_20220721_31_SJD_4_LaB6-4min.uxd
; (content of file Y:\Sam\Apurva-07-20-2022\puck1\ML_20220721_31_SJD_0_LaB6-4min.raw)
_FILEVERSION = 3
_SAMPLE = ML_20220721_31_SJD_0_LaB6-4min
_+SAMPLE =
_SITE = USA
_USER = Administrator
_GONIOMETER_CODE = 20
; Goniometer : D8 theta/2theta, stage : Unknown
_ATTACHMENTS_CODE = 0
_GONIOMETER_RADIUS = 200.5
_FIXED_DIVSLIT = 0.6
_FIXED_SAMPLESLIT = 0
_SOLLER_SLITS = 2
_FIXED_DETSLIT = 9.55
_MONOCHROMATOR = 0
; Incident beam monochromator : None
_SOLLER_SLITS_2 = N
_THIN_FILM = N
_BETA_FILTER = Y
_FIXED_ANTISLIT = 5.89
_ANALYZER_CODE = 0
; Received beam analyzer : None
_DATEMEASURED = "25-Jul-2022 16:11:29"
_WL_UNIT = A
_WL1 = 1.5406
_WL2 = 1.54439
_WL3 = 1.39222
_WLRATIO = 0.5
_ANODE = Cu
_V4_INF_CREATOR = XRDWizard
_V4_INF_CREATOR_VERSION = V2.9.0.22
_V4_INF_WIZARD_VERSION = V2.9.0.22
_V4_INF_WIZARD_ADDINS = V2.9.0.22
_V4_INF_WIZARD_DOCTYPE = XRD
_V4_INF_OSUSER = McQueenLab
_V4_INF_USER = Administrator
_V4_INF_SITE = USA
_V4_INF_SAMPLEID = ML_20220721_31_SJD_0_LaB6-4min

; Data for range 1
_DRIVE = COUPLED
_STEPTIME = 11.28
_STEPSIZE = 0.0185756
_STEPMODE = C
_START = 5
_THETA = 2.5
_2THETA = 5
_KHI = 0
_PHI = 0
_X = 0
_Y = 0
_Z = 0
_DETECTOR = 5
; Detector type : Unknown
_DETECTORSLIT = unkn
_AUX1 = 0
_AUX2 = 0
_AUX3 = 0
_TIMESTARTED = 15
_TEMP_RATE = -1
_TEMP_DELAY = -1
_KV = 40
_MA = 40
_RANGE_WL = 1.5406
_3DPLANE = 0
_V4_ADDITIONALDETECTOR = 257
_V4_PSD2THETA = 3.365
_V4_PSDCHANNEL1 = 0
_V4_PSDAPERTURE = 12.68
_V4_PSDTYPE = 5
_V4_PSDFIXED = 0
_V4_COUNTERS_MASK = 4096
_V4_DRIVES_MASK = 0
_V4_ENCODERS_MASK = 0
_2THETACOUNTS = 1
; 2THETA  PSD
   5.0000        275
   5.1858        272
   5.3715        209
   5.5573        204
   5.7430        223
   5.9288        187
   6.1145        194
   6.3003        182
   6.4860        215
   6.6718        163
   6.8576        177
   7.0433        155
   7.2291        149
   7.4148        160
   7.6006        152
   7.7863        180
   7.9721        199
   8.1579        196
   8.3436        195
   8.5294        190
   8.7151        191
   8.9009        236
   9.0866        213
   9.2724        211
   9.4581        227
   9.6439        205
   9.8297        246
  10.0154        226
  10.2012        253
  10.3869        208
  10.5727        241
  10.7584        239
  10.9442        189
  11.1299        260
  11.3157        243
  11.5015        246
  11.6872        229
  11.8730        235
  12.0587        233
  12.2445        207
  12.4302        199
  12.6160        227
  12.8018        229
  12.9875        225
  13.1733        201
  13.3590        227
  13.5448        200
  13.7305        207
  13.9163        183
  14.1020        176
  14.2878        183
  14.4736        186
  14.6593        173
  14.8451        148
  15.0308        142
  15.2166        162
  15.4023        156
  15.5881        166
  15.7738        164
  15.9596        155
  16.1454        153
  16.3311        161
  16.5169        148
  16.7026        170
  16.8884        160
  17.0741        178
  17.2599        173
  17.4457        165
  17.6314        155
  17.8172        173
  18.0029        143
  18.1887        159
  18.3744        172
  18.5602        161
  18.7459        184
  18.9317        168
  19.1175        160
  19.3032        159
  19.4890        196
  19.6747        161
  19.8605        157
  20.0462        204
  20.2320        163
  20.4177        181
  20.6035        158
  20.7893        191
  20.9750        219
  21.1608        246
  21.3465        543
  21.5323        244
  21.7180        204
  21.9038        172
  22.0896        199
  22.2753        217
  22.4611        183
  22.6468        206
  22.8326        202
  23.0183        200
  23.2041        218
  23.3898        204
  23.5756        202
  23.7614        197
  23.9471        211
  24.1329        233
  24.3186        217
  24.5044        199
  24.6901        201
  24.8759        214
  25.0616        185
  25.2474        209
  25.4332        197
  25.6189        189
  25.8047        215
  25.9904        188
  26.1762        172
  26.3619        189
  26.5477        209
  26.7335        184
  26.9192        177
  27.1050        183
  27.2907        195
  27.4765        181
  27.6622        161
  27.8480        157
  28.0337        195
  28.2195        175
  28.4053        165
  28.5910        163
  28.7768        177
  28.9625        170
  29.1483        155
  29.3340        156
  29.5198        149
  29.7055        149
  29.8913        151
  30.0771        160
  30.2628        175
  30.4486        242
  30.6343        164
  30.8201        141
  31.0058        155
  31.1916        140
  31.3774        146
  31.5631        144
  31.7489        125
  31.9346        150
  32.1204        116
  32.3061        146
  32.4919        148
  32.6776        122
  32.8634        113
  33.0492        123
  33.2349        123
  33.4207        135
  33.6064        108
  33.7922        145
  33.9779        112
  34.1637        117
  34.3494        111
  34.5352        129
  34.7210        146
  34.9067        130
  35.0925        116
  35.2782        100
  35.4640        117
  35.6497        106
  35.8355        101
  36.0213        134
  36.2070        104
  36.3928        103
  36.5785         90
  36.7643         87
  36.9500         86
  37.1358         74
  37.3215        111
  37.5073        110
  37.6931         73
  37.8788         78
  38.0646         83
  38.2503         80
  38.4361         86
  38.6218         78
  38.8076         91
  38.9933         76
  39.1791        101
  39.3649         85
  39.5506         94
  39.7364         82
  39.9221         88
  40.1079         76
  40.2936         86
  40.4794         76
  40.6652         85
  40.8509         89
  41.0367         86
  41.2224         80
  41.4082         79
  41.5939         96
  41.7797         76
  41.9654         93
  42.1512         91
  42.3370         66
  42.5227         78
  42.7085         70
  42.8942         75
  43.0800         83
  43.2657         90
  43.4515         96
  43.6372        108
  43.8230         79
  44.0088         90
  44.1945         74
  44.3803         64
  44.5660         64
  44.7518         74
  44.9375         78
  45.1233         69
  45.3091         55
  45.4948         78
  45.6806         66
  45.8663         65
  46.0521         58
  46.2378         71
  46.4236         42
  46.6093         69
  46.7951         76
  46.9809         58
  47.1666         66
  47.3524         78
  47.5381         66
  47.7239         57
  47.9096         61
  48.0954         63
  48.2811         77
  48.4669         65
  48.6527         72
  48.8384         70
  49.0242         77
  49.2099         76
  49.3957         65
  49.5814         60
  49.7672         49
  49.9530         68
  50.1387         60
  50.3245         61
  50.5102         59
  50.6960         79
  50.8817         59
  51.0675         62
  51.2532         47
  51.4390         60
  51.6248         73
  51.8105         68
  51.9963         60
  52.1820         54
  52.3678         61
  52.5535         63
  52.7393         58
  52.9250         63
  53.1108         58
  53.2966         43
  53.4823         66
  53.6681         56
  53.8538         72
  54.0396         51
  54.2253         67
  54.4111         65
  54.5969         60
  54.7826         57
  54.9684         56
  55.1541         60
  55.3399         53
  55.5256         50
  55.7114         71
  55.8971         64
  56.0829         56
  56.2687         53
  56.4544         63
  56.6402         62
  56.8259         54
  57.0117         63
  57.1974         55
  57.3832         43
  57.5689         52
  57.7547         59
  57.9405         68
  58.1262         60
  58.3120         36
  58.4977         43
  58.6835         37
  58.8692         70
  59.0550         64
  59.2408         54
  59.4265         66
  59.6123         54
  59.7980         41
  59.9838         42
  60.0024         70

File: ML_20220721_32_SJD_4_LaB6-4min.csv
;,2THETA,
5.0000,268
5.1858,250
5.3715,215
5.5573,210
5.7430,204
5.9288,206
6.1145,206
6.3003,170
6.4860,189
6.6718,157
6.8576,167
7.0433,166
7.2291,156
7.4148,147
7.6006,175
7.7863,172
7.9721,206
8.1579,195
8.3436,206
8.5294,193
8.7151,214
8.9009,218
9.0866,231
9.2724,220
9.4581,215
9.6439,217
9.8297,232
10.0154,222
10.2012,250
10.3869,246
10.5727,223
10.7584,240
10.9442,243
11.1299,252
11.3157,220
11.5015,228
11.6872,218
11.8730,206
12.0587,223
12.2445,200
12.4302,212
12.6160,240
12.8018,229
12.9875,217
13.1733,223
13.3590,230
13.5448,208
13.7305,190
13.9163,222
14.1020,187
14.2878,169
14.4736,164
14.6593,170
14.8451,174
15.0308,156
15.2166,154
15.4023,141
15.5881,165
15.7738,156
15.9596,146
16.1454,173
16.3311,165
16.5169,164
16.7026,143
16.8884,167
17.0741,179
17.2599,144
17.4457,175
17.6314,168
17.8172,181
18.0029,149
18.1887,171
18.3744,180
18.5602,200
18.7459,182
18.9317,191
19.1175,197
19.3032,186
19.4890,189
19.6747,181
19.8605,179
20.0462,187
20.2320,198
20.4177,192
20.6035,191
20.7893,180
20.9750,220
21.1608,216
21.3465,509
21.5323,216
21.7180,196
21.9038,208
22.0896,195
22.2753,191
22.4611,205
22.6468,193
22.8326,207
23.0183,198
23.2041,184
23.3898,206
23.5756,219
23.7614,208
23.9471,186
24.1329,203
24.3186,240
24.5044,202
24.6901,193
24.8759,207
25.0616,188
25.2474,187
25.4332,213
25.6189,186
25.8047,191
25.9904,191
26.1762,171
26.3619,183
26.5477,206
26.7335,204
26.9192,181
27.1050,199
27.2907,199
27.4765,174
27.6622,178
27.8480,179
28.0337,199
28.2195,172
28.4053,143
28.5910,175
28.7768,182
28.9625,154
29.1483,144
29.3340,173
29.5198,180
29.7055,162
29.8913,168
30.0771,145
30.2628,168
30.4486,240
30.6343,152
30.8201,150
31.0058,135
31.1916,143
31.3774,130
31.5631,137
31.7489,122
31.9346,133
32.1204,137
32.3061,132
32.4919,126
32.6776,128
32.8634,112
33.0492,135
33.2349,104
33.4207,105
33.6064,101
33.7922,99
33.9779,112
34.1637,103
34.3494,115
34.5352,109
34.7210,142
34.9067,102
35.0925,114
35.2782,111
35.4640,99
35.6497,105
35.8355,103
36.0213,124
36.2070,105
36.3928,107
36.5785,98
36.7643,86
36.9500,110
37.1358,109
37.3215,103
37.5073,112
37.6931,89
37.8788,81
38.0646,87
38.2503,79
38.4361,104
38.6218,88
38.8076,77
38.9933,86
39.1791,69
39.3649,74
39.5506,74
39.7364,82
39.9221,83
40.1079,73
40.2936,94
40.4794,68
40.6652,84
40.8509,80
41.0367,81
41.2224,70
41.4082,82
41.5939,65
41.7797,80
41.9654,69
42.1512,65
42.3370,68
42.5227,72
42.7085,72
42.8942,81
43.0800,83
43.2657,94
43.4515,90
43.6372,104
43.8230,72
44.0088,65
44.1945,64
44.3803,70
44.5660,75
44.7518,83
44.9375,76
45.1233,59
45.3091,75
45.4948,56
45.6806,66
45.8663,72
46.0521,67
46.2378,80
46.4236,62
46.6093,67
46.7951,49
46.9809,54
47.1666,66
47.3524,76
47.5381,57
47.7239,53
47.9096,71
48.0954,61
48.2811,64
48.4669,55
48.6527,54
48.8384,52
49.0242,79
49.2099,87
49.3957,65
49.5814,53
49.7672,62
49.9530,86
50.1387,72
50.3245,72
50.5102,62
50.6960,72
50.8817,69
51.0675,58
51.2532,70
51.4390,88
51.6248,67
51.8105,65
51.9963,68
52.1820,58
52.3678,56
52.5535,59
52.7393,56
52.9250,58
53.1108,54
53.2966,54
53.4823,57
53.6681,55
53.8538,66
54.0396,82
54.2253,54
54.4111,62
54.5969,64
54.7826,55
54.9684,52
55.1541,61
55.3399,63
55.5256,55
55.7114,58
55.8971,53
56.0829,56
56.2687,75
56.4544,61
56.6402,55
56.8259,59
57.0117,53
57.1974,57
57.3832,74
57.5689,70
57.7547,52
57.9405,73
58.1262,59
58.3120,55
58.4977,47
58.6835,55
58.8692,54
59.0550,55
59.2408,54
59.4265,52
59.6123,56
59.7980,49
59.9838,60
60.0024,56

File: ML_20220721_33_SJD_4_LaB6-4min.csv
;,2THETA,
5.0000,233
5.1858,266
5.3715,236
5.5573,245
5.7430,231
5.9288,175
6.1145,193
6.3003,170
6.4860,172
6.6718,168
6.8576,175
7.0433,148
7.2291,188
7.4148,165
7.6006,202
7.7863,193
7.9721,216
8.1579,233
8.3436,191
8.5294,206
8.7151,208
8.9009,221
9.0866,237
9.2724,218
9.4581,212
9.6439,212
9.8297,232
10.0154,244
10.2012,245
10.3869,248
10.5727,254
10.7584,229
10.9442,240
11.1299,232
11.3157,245
11.5015,265
11.6872,241
11.8730,230
12.0587,234
12.2445,210
12.4302,205
12.6160,254
12.8018,232
12.9875,226
13.1733,199
13.3590,189
13.5448,196
13.7305,212
13.9163,200
14.1020,178
14.2878,203
14.4736,176
14.6593,194
14.8451,175
15.0308,189
15.2166,159
15.4023,177
15.5881,163
15.7738,171
15.9596,174
16.1454,182
16.3311,150
16.5169,154
16.7026,165
16.8884,144
17.0741,153
17.2599,148
17.4457,157
17.6314,147
17.8172,168
18.0029,157
18.1887,168
18.3744,168
18.5602,168
18.7459,160
18.9317,186
19.1175,184
19.3032,164
19.4890,159
19.6747,170
19.8605,177
20.0462,193
20.2320,199
20.4177,188
20.6035,193
20.7893,212
20.9750,194
21.1608,243
21.3465,482
21.5323,196
21.7180,206
21.9038,202
22.0896,209
22.2753,198
22.4611,226
22.6468,194
22.8326,200
23.0183,224
23.2041,199
23.3898,199
23.5756,195
23.7614,191
23.9471,196
24.1329,212
24.3186,221
24.5044,217
24.6901,190
24.8759,196
25.0616,186
25.2474,168
25.4332,174
25.6189,201
25.8047,198
25.9904,182
26.1762,210
26.3619,205
26.5477,207
26.7335,214
26.9192,183
27.1050,213
27.2907,231
27.4765,174
27.6622,160
27.8480,162
28.0337,153
28.2195,181
28.4053,161
28.5910,170
28.7768,187
28.9625,192
29.1483,160
29.3340,185
29.5198,153
29.7055,157
29.8913,150
30.0771,131
30.2628,174
30.4486,252
30.6343,154
30.8201,153
31.0058,147
31.1916,153
31.3774,159
31.5631,144
31.7489,118
31.9346,119
32.1204,127
32.3061,136
32.4919,125
32.6776,115
32.8634,133
33.0492,133
33.2349,122
33.4207,118
33.6064,123
33.7922,127
33.9779,112
34.1637,116
34.3494,117
34.5352,130
34.7210,150
34.9067,161
35.0925,109
35.2782,110
35.4640,110
35.6497,100
35.8355,94
36.0213,102
36.2070,98
36.3928,95
36.5785,88
36.7643,80
36.9500,87
37.1358,77
37.3215,96
37.5073,117
37.6931,84
37.8788,87
38.0646,80
38.2503,82
38.4361,78
38.6218,81
38.8076,76
38.9933,106
39.1791,93
39.3649,88
39.5506,78
39.7364,92
39.9221,79
40.1079,91
40.2936,71
40.4794,94
40.6652,74
40.8509,70
41.0367,84
41.2224,77
41.4082,92
41.5939,85
41.7797,74
41.9654,63
42.1512,60
42.3370,68
42.5227,63
42.7085,67
42.8942,88
43.0800,77
43.2657,96
43.4515,83
43.6372,109
43.8230,76
44.0088,84
44.1945,71
44.3803,78
44.5660,95
44.7518,78
44.9375,79
45.1233,75
45.3091,77
45.4948,73
45.6806,79
45.8663,72
46.0521,66
46.2378,71
46.4236,70
46.6093,68
46.7951,73
46.9809,59
47.1666,73
47.3524,86
47.5381,66
47.7239,73
47.9096,80
48.0954,62
48.2811,65
48.4669,71
48.6527,90
48.8384,75
49.0242,82
49.2099,68
49.3957,61
49.5814,49
49.7672,53
49.9530,52
50.1387,68
50.3245,70
50.5102,64
50.6960,62
50.8817,67
51.0675,65
51.2532,74
51.4390,56
51.6248,56
51.8105,58
51.9963,56
52.1820,84
52.3678,50
52.5535,68
52.7393,62
52.9250,57
53.1108,67
53.2966,44
53.4823,42
53.6681,72
53.8538,59
54.0396,62
54.2253,52
54.4111,55
54.5969,48
54.7826,56
54.9684,59
55.1541,53
55.3399,62
55.5256,69
55.7114,48
55.8971,61
56.0829,63
56.2687,64
56.4544,63
56.6402,49
56.8259,54
57.0117,53
57.1974,50
57.3832,48
57.5689,59
57.7547,58
57.9405,66
58.1262,61
58.3120,50
58.4977,66
58.6835,55
58.8692,54
59.0550,53
59.2408,52
59.4265,56
59.6123,51
59.7980,58
59.9838,48
60.0024,46

File: ML_20220721_34_SJD_4_LaB6-4min.uxd
; (content of file Y:\Sam\Apurva-07-20-2022\puck1\ML_20220721_34_SJD_0_LaB6-4min.raw)
_FILEVERSION = 3
_SAMPLE = ML_20220721_34_SJD_0_LaB6-4min
_+SAMPLE =
_SITE = USA
_USER = Administrator
_GONIOMETER_CODE = 20
; Goniometer : D8 theta/2theta, stage : Unknown
_ATTACHMENTS_CODE = 0
_GONIOMETER_RADIUS = 200.5
_FIXED_DIVSLIT = 0.6
_FIXED_SAMPLESLIT = 0
_SOLLER_SLITS = 2
_FIXED_DETSLIT = 9.55
_MONOCHROMATOR = 0
; Incident beam monochromator : None
_SOLLER_SLITS_2 = N
_THIN_FILM = N
_BETA_FILTER = Y
_FIXED_ANTISLIT = 5.89
_ANALYZER_CODE = 0
; Received beam analyzer : None
_DATEMEASURED = "25-Jul-2022 16:24:55"
_WL_UNIT = A
_WL1 = 1.5406
_WL2 = 1.54439
_WL3 = 1.39222
_WLRATIO = 0.5
_ANODE = Cu
_V4_INF_CREATOR = XRDWizard
_V4_INF_CREATOR_VERSION = V2.9.0.22
_V4_INF_WIZARD_VERSION = V2.9.0.22
_V4_INF_WIZARD_ADDINS = V2.9.0.22
_V4_INF_WIZARD_DOCTYPE = XRD
_V4_INF_OSUSER = McQueenLab
_V4_INF_USER = Administrator
_V4_INF_SITE = USA
_V4_INF_SAMPLEID = ML_20220721_34_SJD_0_LaB6-4min

; Data for range 1
_DRIVE = COUPLED
_STEPTIME = 11.28
_STEPSIZE = 0.0185756
_STEPMODE = C
_START = 5
_THETA = 2.5
_2THETA = 5
_KHI = 0
_PHI = 0
_X = 0
_Y = 0
_Z = 0
_DETECTOR = 5
; Detector type : Unknown
_DETECTORSLIT = unkn
_AUX1 = 0
_AUX2 = 0
_AUX3 = 0
_TIMESTARTED = 15
_TEMP_RATE = -1
_TEMP_DELAY = -1
_KV = 40
_MA = 40
_RANGE_WL = 1.5406
_3DPLANE = 0
_V4_ADDITIONALDETECTOR = 257
_V4_PSD2THETA = 3.3675
_V4_PSDCHANNEL1 = 0
_V4_PSDAPERTURE = 12.68
_V4_PSDTYPE = 5
_V4_PSDFIXED = 0
_V4_COUNTERS_MASK = 4096
_V4_DRIVES_MASK = 0
_V4_ENCODERS_MASK = 0
_2THETACOUNTS = 1
; 2THETA  PSD
   5.0000        263
   5.1858        252
   5.3715        256
   5.5573        230
   5.7430        208
   5.9288        215
   6.1145        194
   6.3003        172
   6.4860        180
   6.6718        167
   6.8576        174
   7.0433        156
   7.2291        154
   7.4148        170
   7.6006        168
   7.7863        192
   7.9721        201
   8.1579        197
   8.3436        220
   8.5294        221
   8.7151        241
   8.9009        206
   9.0866        214
   9.2724        211
   9.4581        237
   9.6439        231
   9.8297        213
  10.0154        225
  10.2012        261
  10.3869        218
  10.5727        201
  10.7584        241
  10.9442        212
  11.1299        241
  11.3157        215
  11.5015        232
  11.6872        234
  11.8730        208
  12.0587        221
  12.2445        200
  12.4302        222
  12.6160        219
  12.8018        211
  12.9875        222
  13.1733        207
  13.3590        184
  13.5448        212
  13.7305        211
  13.9163        199
  14.1020        185
  14.2878        178
  14.4736        165
  14.6593        176
  14.8451        169
  15.0308        173
  15.2166        161
  15.4023        195
  15.5881        148
  15.7738        160
  15.9596        154
  16.1454        130
  16.3311        156
  16.5169        161
  16.7026        170
  16.8884        155
  17.0741        177
  17.2599        169
  17.4457        150
  17.6314        179
  17.8172        154
  18.0029        185
  18.1887        164
  18.3744        147
  18.5602        161
  18.7459        156
  18.9317        177
  19.1175        173
  19.3032        162
  19.4890        191
  19.6747        204
  19.8605        194
  20.0462        171
  20.2320        191
  20.4177        186
  20.6035        204
  20.7893        204
  20.9750        198
  21.1608        199
  21.3465        554
  21.5323        211
  21.7180        184
  21.9038        209
  22.0896        188
  22.2753        207
  22.4611        191
  22.6468        179
  22.8326        214
  23.0183        200
  23.2041        188
  23.3898        186
  23.5756        201
  23.7614        220
  23.9471        194
  24.1329        205
  24.3186        218
  24.5044        210
  24.6901        207
  24.8759        216
  25.0616        191
  25.2474        191
  25.4332        203
  25.6189        218
  25.8047        185
  25.9904        214
  26.1762        170
  26.3619        161
  26.5477        184
  26.7335        193
  26.9192        192
  27.1050        184
  27.2907        205
  27.4765        195
  27.6622        158
  27.8480        171
  28.0337        197
  28.2195        176
  28.4053        177
  28.5910        164
  28.7768        165
  28.9625        160
  29.1483        162
  29.3340        147
  29.5198        169
  29.7055        155
  29.8913        165
  30.0771        156
  30.2628        166
  30.4486        258
  30.6343        139
  30.8201        142
  31.0058        150
  31.1916        139
  31.3774        141
  31.5631        154
  31.7489        126
  31.9346        137
  32.1204        132
  32.3061        129
  32.4919        190
  32.6776        130
  32.8634        134
  33.0492        105
  33.2349        125
  33.4207        121
  33.6064        116
  33.7922        121
  33.9779        106
  34.1637         94
  34.3494        116
  34.5352        128
  34.7210        147
  34.9067        113
  35.0925        124
  35.2782         95
  35.4640        108
  35.6497         86
  35.8355         96
  36.0213        102
  36.2070         84
  36.3928        116
  36.5785        100
  36.7643         89
  36.9500         95
  37.1358         99
  37.3215        113
  37.5073        122
  37.6931         96
  37.8788         79
  38.0646         82
  38.2503         82
  38.4361         86
  38.6218         80
  38.8076         93
  38.9933         79
  39.1791         98
  39.3649         86
  39.5506         96
  39.7364         63
  39.9221         84
  40.1079         65
  40.2936         74
  40.4794         88
  40.6652         70
  40.8509         79
  41.0367         78
  41.2224         82
  41.4082         73
  41.5939         70
  41.7797         70
  41.9654         61
  42.1512         61
  42.3370         78
  42.5227         89
  42.7085         72
  42.8942         93
  43.0800         68
  43.2657         89
  43.4515         87
  43.6372        121
  43.8230         75
  44.0088         74
  44.1945         76
  44.3803         65
  44.5660         67
  44.7518         75
  44.9375         81
  45.1233         57
  45.3091         81
  45.4948         76
  45.6806         70
  45.8663         81
  46.0521         79
  46.2378         53
  46.4236         54
  46.6093         71
  46.7951         64
  46.9809         59
  47.1666         52
  47.3524         51
  47.5381         70
  47.7239         54
  47.9096         70
  48.0954         64
  48.2811         57
  48.4669         64
  48.6527         48
  48.8384         78
  49.0242         88
  49.2099         54
  49.3957         60
  49.5814         63
  49.7672         62
  49.9530         65
  50.1387         70
  50.3245         69
  50.5102         64
  50.6960         64
  50.8817         51
  51.0675         63
  51.2532         51
  51.4390         66
  51.6248         65
  51.8105         72
  51.9963         62
  52.1820         63
  52.3678         64
  52.5535         64
  52.7393         57
  52.9250         60
  53.1108         67
  53.2966         49
  53.4823         49
  53.6681         58
  53.8538         55
  54.0396         69
  54.2253         70
  54.4111         58
  54.5969         63
  54.7826         60
  54.9684         67
  55.1541         57
  55.3399         78
  55.5256         51
  55.7114         60
  55.8971         52
  56.0829         59
  56.2687         70
  56.4544         78
  56.6402         54
  56.8259         58
  57.0117         50
  57.1974         56
  57.3832         60
  57.5689         53
  57.7547         51
  57.9405         79
  58.1262         55
  58.3120         58
  58.4977         55
  58.6835         47
  58.8692         54
  59.0550         56
  59.2408         57
  59.4265         54
  59.6123         50
  59.7980         60
  59.9838         61
  60.0024         47