Folder: xrd_clustering/notebooks/data/xrd_data (part 18)

File: ML_20220718_51_SJD_4_LaB6-2min.uxd
; (content of file Y:\Sam\Apurva-07-20-2022\puck4\ML_20220718_51_SJD_4_LaB6-2min.raw)
_FILEVERSION = 3
_SAMPLE = ML_20220718_51_SJD_4_LaB6-2min
_+SAMPLE =
_SITE = USA
_USER = Administrator
_GONIOMETER_CODE = 20
; Goniometer : D8 theta/2theta, stage : Unknown
_ATTACHMENTS_CODE = 0
_GONIOMETER_RADIUS = 200.5
_FIXED_DIVSLIT = 0.6
_FIXED_SAMPLESLIT = 0
_SOLLER_SLITS = 2
_FIXED_DETSLIT = 9.55
_MONOCHROMATOR = 0
; Incident beam monochromator : None
_SOLLER_SLITS_2 = N
_THIN_FILM = N
_BETA_FILTER = Y
_FIXED_ANTISLIT = 5.89
_ANALYZER_CODE = 0
; Received beam analyzer : None
_DATEMEASURED = "26-Jul-2022 12:30:02"
_WL_UNIT = A
_WL1 = 1.5406
_WL2 = 1.54439
_WL3 = 1.39222
_WLRATIO = 0.5
_ANODE = Cu
_V4_INF_CREATOR = XRDWizard
_V4_INF_CREATOR_VERSION = V2.9.0.22
_V4_INF_WIZARD_VERSION = V2.9.0.22
_V4_INF_WIZARD_ADDINS = V2.9.0.22
_V4_INF_WIZARD_DOCTYPE = XRD
_V4_INF_OSUSER = McQueenLab
_V4_INF_USER = Administrator
_V4_INF_SITE = USA
_V4_INF_SAMPLEID = ML_20220718_51_SJD_4_LaB6-2min

; Data for range 1
_DRIVE = COUPLED
_STEPTIME = 5.64
_STEPSIZE = 0.0185756
_STEPMODE = C
_START = 5
_THETA = 2.5
_2THETA = 5
_KHI = 0
_PHI = 0
_X = 0
_Y = 0
_Z = 0
_DETECTOR = 5
; Detector type : Unknown
_DETECTORSLIT = unkn
_AUX1 = 0
_AUX2 = 0
_AUX3 = 0
_TIMESTARTED = 15
_TEMP_RATE = -1
_TEMP_DELAY = -1
_KV = 40
_MA = 40
_RANGE_WL = 1.5406
_3DPLANE = 0
_V4_ADDITIONALDETECTOR = 257
_V4_PSD2THETA = 3.3734
_V4_PSDCHANNEL1 = 0
_V4_PSDAPERTURE = 12.68
_V4_PSDTYPE = 5
_V4_PSDFIXED = 0
_V4_COUNTERS_MASK = 4096
_V4_DRIVES_MASK = 0
_V4_ENCODERS_MASK = 0
_2THETACOUNTS = 1
; 2THETA  PSD
   5.0000        131
   5.1858        118
   5.3715        115
   5.5573        121
   5.7430        105
   5.9288         93
   6.1145         81
   6.3003         97
   6.4860         79
   6.6718         96
   6.8576         84
   7.0433         74
   7.2291         90
   7.4148         73
   7.6006         74
   7.7863         87
   7.9721         93
   8.1579         87
   8.3436         89
   8.5294         97
   8.7151         88
   8.9009        102
   9.0866        121
   9.2724        126
   9.4581         99
   9.6439        106
   9.8297        132
  10.0154         91
  10.2012        117
  10.3869        105
  10.5727        108
  10.7584        111
  10.9442         98
  11.1299        130
  11.3157        101
  11.5015        101
  11.6872         96
  11.8730        118
  12.0587        104
  12.2445        101
  12.4302        109
  12.6160        122
  12.8018         94
  12.9875        106
  13.1733         92
  13.3590         96
  13.5448         97
  13.7305         97
  13.9163         92
  14.1020         84
  14.2878         83
  14.4736        101
  14.6593         72
  14.8451         76
  15.0308         87
  15.2166         80
  15.4023         71
  15.5881         79
  15.7738         80
  15.9596         81
  16.1454         72
  16.3311         83
  16.5169         85
  16.7026         79
  16.8884         82
  17.0741         80
  17.2599         89
  17.4457         88
  17.6314         80
  17.8172         80
  18.0029         80
  18.1887         76
  18.3744         90
  18.5602         83
  18.7459         88
  18.9317         79
  19.1175         99
  19.3032         73
  19.4890         85
  19.6747         91
  19.8605         83
  20.0462         78
  20.2320         99
  20.4177        100
  20.6035        103
  20.7893         90
  20.9750        103
  21.1608        132
  21.3465        247
  21.5323        106
  21.7180        100
  21.9038         93
  22.0896        109
  22.2753        105
  22.4611        107
  22.6468         83
  22.8326         95
  23.0183         91
  23.2041         91
  23.3898         88
  23.5756        109
  23.7614        108
  23.9471        106
  24.1329         95
  24.3186        102
  24.5044        104
  24.6901        101
  24.8759        110
  25.0616        111
  25.2474        108
  25.4332         92
  25.6189         91
  25.8047         98
  25.9904         91
  26.1762         92
  26.3619         90
  26.5477        100
  26.7335        111
  26.9192         86
  27.1050         96
  27.2907        111
  27.4765         95
  27.6622         81
  27.8480         81
  28.0337         85
  28.2195         94
  28.4053         59
  28.5910         66
  28.7768         88
  28.9625         79
  29.1483         93
  29.3340         93
  29.5198         73
  29.7055         68
  29.8913         80
  30.0771         86
  30.2628         86
  30.4486        108
  30.6343         65
  30.8201         73
  31.0058         79
  31.1916         57
  31.3774         63
  31.5631         76
  31.7489         81
  31.9346         62
  32.1204         52
  32.3061         65
  32.4919         66
  32.6776         60
  32.8634         52
  33.0492         57
  33.2349         56
  33.4207         71
  33.6064         59
  33.7922         44
  33.9779         56
  34.1637         49
  34.3494         58
  34.5352         51
  34.7210         73
  34.9067         67
  35.0925         60
  35.2782         44
  35.4640         43
  35.6497         57
  35.8355         44
  36.0213         57
  36.2070         48
  36.3928         47
  36.5785         39
  36.7643         42
  36.9500         40
  37.1358         49
  37.3215         64
  37.5073         54
  37.6931         45
  37.8788         56
  38.0646         32
  38.2503         46
  38.4361         36
  38.6218         55
  38.8076         48
  38.9933         40
  39.1791         36
  39.3649         44
  39.5506         34
  39.7364         44
  39.9221         45
  40.1079         26
  40.2936         35
  40.4794         35
  40.6652         47
  40.8509         28
  41.0367         36
  41.2224         46
  41.4082         34
  41.5939         30
  41.7797         26
  41.9654         30
  42.1512         29
  42.3370         37
  42.5227         35
  42.7085         35
  42.8942         40
  43.0800         32
  43.2657         35
  43.4515         46
  43.6372         50
  43.8230         33
  44.0088         35
  44.1945         34
  44.3803         28
  44.5660         37
  44.7518         42
  44.9375         37
  45.1233         37
  45.3091         32
  45.4948         34
  45.6806         32
  45.8663         24
  46.0521         31
  46.2378         31
  46.4236         32
  46.6093         33
  46.7951         30
  46.9809         31
  47.1666         33
  47.3524         35
  47.5381         38
  47.7239         19
  47.9096         30
  48.0954         31
  48.2811         23
  48.4669         31
  48.6527         35
  48.8384         42
  49.0242         37
  49.2099         26
  49.3957         25
  49.5814         30
  49.7672         21
  49.9530         34
  50.1387         29
  50.3245         38
  50.5102         38
  50.6960         31
  50.8817         24
  51.0675         24
  51.2532         23
  51.4390         40
  51.6248         26
  51.8105         24
  51.9963         44
  52.1820         20
  52.3678         21
  52.5535         27
  52.7393         22
  52.9250         36
  53.1108         35
  53.2966         29
  53.4823         27
  53.6681         36
  53.8538         34
  54.0396         27
  54.2253         26
  54.4111         29
  54.5969         29
  54.7826         23
  54.9684         29
  55.1541         31
  55.3399         28
  55.5256         26
  55.7114         24
  55.8971         21
  56.0829         30
  56.2687         29
  56.4544         30
  56.6402         27
  56.8259         28
  57.0117         27
  57.1974         31
  57.3832         30
  57.5689         19
  57.7547         31
  57.9405         29
  58.1262         25
  58.3120         29
  58.4977         29
  58.6835         26
  58.8692         28
  59.0550         29
  59.2408         23
  59.4265         35
  59.6123         22
  59.7980         35
  59.9838         35
  60.0024         33

File: ML_20220718_51_SJD_4_LaB6-4min.uxd
; (content of file Y:\Sam\Apurva-07-20-2022\puck4\ML_20220718_51_SJD_4_LaB6-4min.raw)
_FILEVERSION = 3
_SAMPLE = ML_20220718_51_SJD_4_LaB6-4min
_+SAMPLE =
_SITE = USA
_USER = Administrator
_GONIOMETER_CODE = 20
; Goniometer : D8 theta/2theta, stage : Unknown
_ATTACHMENTS_CODE = 0
_GONIOMETER_RADIUS = 200.5
_FIXED_DIVSLIT = 0.6
_FIXED_SAMPLESLIT = 0
_SOLLER_SLITS = 2
_FIXED_DETSLIT = 9.55
_MONOCHROMATOR = 0
; Incident beam monochromator : None
_SOLLER_SLITS_2 = N
_THIN_FILM = N
_BETA_FILTER = Y
_FIXED_ANTISLIT = 5.89
_ANALYZER_CODE = 0
; Received beam analyzer : None
_DATEMEASURED = "26-Jul-2022 14:05:16"
_WL_UNIT = A
_WL1 = 1.5406
_WL2 = 1.54439
_WL3 = 1.39222
_WLRATIO = 0.5
_ANODE = Cu
_V4_INF_CREATOR = XRDWizard
_V4_INF_CREATOR_VERSION = V2.9.0.22
_V4_INF_WIZARD_VERSION = V2.9.0.22
_V4_INF_WIZARD_ADDINS = V2.9.0.22
_V4_INF_WIZARD_DOCTYPE = XRD
_V4_INF_OSUSER = McQueenLab
_V4_INF_USER = Administrator
_V4_INF_SITE = USA
_V4_INF_SAMPLEID = ML_20220718_51_SJD_4_LaB6-4min

; Data for range 1
_DRIVE = COUPLED
_STEPTIME = 11.28
_STEPSIZE = 0.0185756
_STEPMODE = C
_START = 5
_THETA = 2.5
_2THETA = 5
_KHI = 0
_PHI = 0
_X = 0
_Y = 0
_Z = 0
_DETECTOR = 5
; Detector type : Unknown
_DETECTORSLIT = unkn
_AUX1 = 0
_AUX2 = 0
_AUX3 = 0
_TIMESTARTED = 15
_TEMP_RATE = -1
_TEMP_DELAY = -1
_KV = 40
_MA = 40
_RANGE_WL = 1.5406
_3DPLANE = 0
_V4_ADDITIONALDETECTOR = 257
_V4_PSD2THETA = 3.3901
_V4_PSDCHANNEL1 = 0
_V4_PSDAPERTURE = 12.68
_V4_PSDTYPE = 5
_V4_PSDFIXED = 0
_V4_COUNTERS_MASK = 4096
_V4_DRIVES_MASK = 0
_V4_ENCODERS_MASK = 0
_2THETACOUNTS = 1
; 2THETA  PSD
   5.0000        278
   5.1858        245
   5.3715        237
   5.5573        223
   5.7430        234
   5.9288        212
   6.1145        192
   6.3003        179
   6.4860        212
   6.6718        160
   6.8576        168
   7.0433        150
   7.2291        152
   7.4148        172
   7.6006        174
   7.7863        159
   7.9721        173
   8.1579        204
   8.3436        164
   8.5294        207
   8.7151        217
   8.9009        201
   9.0866        231
   9.2724        218
   9.4581        213
   9.6439        227
   9.8297        225
  10.0154        268
  10.2012        227
  10.3869        231
  10.5727        225
  10.7584        252
  10.9442        214
  11.1299        206
  11.3157        225
  11.5015        225
  11.6872        238
  11.8730        242
  12.0587        233
  12.2445        250
  12.4302        211
  12.6160        198
  12.8018        201
  12.9875        239
  13.1733        210
  13.3590        228
  13.5448        180
  13.7305        203
  13.9163        180
  14.1020        183
  14.2878        206
  14.4736        161
  14.6593        178
  14.8451        179
  15.0308        178
  15.2166        170
  15.4023        170
  15.5881        160
  15.7738        169
  15.9596        151
  16.1454        157
  16.3311        164
  16.5169        150
  16.7026        159
  16.8884        166
  17.0741        163
  17.2599        182
  17.4457        158
  17.6314        153
  17.8172        163
  18.0029        194
  18.1887        151
  18.3744        150
  18.5602        149
  18.7459        176
  18.9317        170
  19.1175        172
  19.3032        165
  19.4890        166
  19.6747        167
  19.8605        166
  20.0462        158
  20.2320        175
  20.4177        155
  20.6035        192
  20.7893        181
  20.9750        185
  21.1608        207
  21.3465        495
  21.5323        182
  21.7180        165
  21.9038        178
  22.0896        213
  22.2753        205
  22.4611        204
  22.6468        204
  22.8326        211
  23.0183        198
  23.2041        192
  23.3898        176
  23.5756        174
  23.7614        215
  23.9471        198
  24.1329        213
  24.3186        231
  24.5044        179
  24.6901        212
  24.8759        204
  25.0616        209
  25.2474        199
  25.4332        183
  25.6189        186
  25.8047        190
  25.9904        182
  26.1762        182
  26.3619        198
  26.5477        190
  26.7335        174
  26.9192        202
  27.1050        200
  27.2907        219
  27.4765        170
  27.6622        180
  27.8480        181
  28.0337        184
  28.2195        174
  28.4053        169
  28.5910        178
  28.7768        181
  28.9625        181
  29.1483        155
  29.3340        164
  29.5198        174
  29.7055        161
  29.8913        151
  30.0771        136
  30.2628        169
  30.4486        231
  30.6343        134
  30.8201        138
  31.0058        143
  31.1916        154
  31.3774        122
  31.5631        149
  31.7489        130
  31.9346        118
  32.1204        109
  32.3061        117
  32.4919        165
  32.6776        141
  32.8634        145
  33.0492        133
  33.2349        112
  33.4207         91
  33.6064        115
  33.7922        117
  33.9779        106
  34.1637        108
  34.3494        110
  34.5352        109
  34.7210        128
  34.9067        136
  35.0925        113
  35.2782        100
  35.4640        128
  35.6497         91
  35.8355         99
  36.0213         91
  36.2070        107
  36.3928         89
  36.5785        103
  36.7643         73
  36.9500        107
  37.1358         98
  37.3215         86
  37.5073        127
  37.6931         86
  37.8788         89
  38.0646         72
  38.2503         89
  38.4361         85
  38.6218         68
  38.8076         92
  38.9933         82
  39.1791        103
  39.3649         80
  39.5506         80
  39.7364         73
  39.9221         87
  40.1079         67
  40.2936         72
  40.4794         72
  40.6652         76
  40.8509         93
  41.0367         67
  41.2224         78
  41.4082         70
  41.5939         76
  41.7797         78
  41.9654         63
  42.1512         81
  42.3370         77
  42.5227         71
  42.7085         70
  42.8942         72
  43.0800         81
  43.2657         82
  43.4515         97
  43.6372         89
  43.8230         76
  44.0088         78
  44.1945         67
  44.3803         68
  44.5660         86
  44.7518         96
  44.9375         68
  45.1233         62
  45.3091         72
  45.4948         66
  45.6806         63
  45.8663         63
  46.0521         54
  46.2378         67
  46.4236         73
  46.6093         68
  46.7951         72
  46.9809         73
  47.1666         63
  47.3524         72
  47.5381         58
  47.7239         58
  47.9096         68
  48.0954         70
  48.2811         61
  48.4669         57
  48.6527         64
  48.8384         72
  49.0242         86
  49.2099         48
  49.3957         69
  49.5814         75
  49.7672         49
  49.9530         72
  50.1387         79
  50.3245         55
  50.5102         63
  50.6960         52
  50.8817         55
  51.0675         60
  51.2532         66
  51.4390         73
  51.6248         62
  51.8105         67
  51.9963         76
  52.1820         58
  52.3678         67
  52.5535         76
  52.7393         56
  52.9250         68
  53.1108         46
  53.2966         61
  53.4823         49
  53.6681         50
  53.8538         61
  54.0396         59
  54.2253         59
  54.4111         43
  54.5969         54
  54.7826         57
  54.9684         29
  55.1541         47
  55.3399         46
  55.5256         50
  55.7114         56
  55.8971         67
  56.0829         54
  56.2687         50
  56.4544         67
  56.6402         39
  56.8259         79
  57.0117         45
  57.1974         53
  57.3832         57
  57.5689         45
  57.7547         56
  57.9405         62
  58.1262         54
  58.3120         81
  58.4977         58
  58.6835         52
  58.8692         56
  59.0550         53
  59.2408         59
  59.4265         45
  59.6123         60
  59.7980         51
  59.9838         42
  60.0024         51

File: ML_20220718_52_SJD_4_LaB6-1min.csv
;,2THETA,
5.0000,88
5.1858,90
5.3715,88
5.5573,80
5.7430,72
5.9288,76
6.1145,60
6.3003,79
6.4860,60
6.6718,68
6.8576,50
7.0433,71
7.2291,57
7.4148,64
7.6006,51
7.7863,70
7.9721,60
8.1579,72
8.3436,80
8.5294,68
8.7151,85
8.9009,79
9.0866,84
9.2724,90
9.4581,88
9.6439,92
9.8297,85
10.0154,106
10.2012,81
10.3869,75
10.5727,88
10.7584,70
10.9442,80
11.1299,99
11.3157,89
11.5015,77
11.6872,95
11.8730,103
12.0587,75
12.2445,76
12.4302,67
12.6160,58
12.8018,77
12.9875,69
13.1733,86
13.3590,85
13.5448,69
13.7305,83
13.9163,68
14.1020,80
14.2878,66
14.4736,81
14.6593,56
14.8451,57
15.0308,71
15.2166,56
15.4023,61
15.5881,64
15.7738,64
15.9596,70
16.1454,54
16.3311,59
16.5169,56
16.7026,52
16.8884,66
17.0741,70
17.2599,67
17.4457,45
17.6314,64
17.8172,60
18.0029,65
18.1887,59
18.3744,62
18.5602,69
18.7459,58
18.9317,68
19.1175,60
19.3032,58
19.4890,61
19.6747,62
19.8605,66
20.0462,61
20.2320,73
20.4177,61
20.6035,59
20.7893,56
20.9750,98
21.1608,79
21.3465,187
21.5323,73
21.7180,78
21.9038,64
22.0896,68
22.2753,75
22.4611,66
22.6468,74
22.8326,81
23.0183,77
23.2041,63
23.3898,69
23.5756,70
23.7614,81
23.9471,64
24.1329,74
24.3186,86
24.5044,84
24.6901,72
24.8759,64
25.0616,60
25.2474,71
25.4332,70
25.6189,74
25.8047,61
25.9904,76
26.1762,63
26.3619,76
26.5477,69
26.7335,81
26.9192,68
27.1050,77
27.2907,78
27.4765,72
27.6622,72
27.8480,81
28.0337,78
28.2195,54
28.4053,50
28.5910,60
28.7768,73
28.9625,56
29.1483,47
29.3340,72
29.5198,58
29.7055,41
29.8913,64
30.0771,52
30.2628,64
30.4486,106
30.6343,56
30.8201,63
31.0058,67
31.1916,45
31.3774,49
31.5631,62
31.7489,43
31.9346,47
32.1204,43
32.3061,51
32.4919,51
32.6776,52
32.8634,51
33.0492,55
33.2349,50
33.4207,48
33.6064,53
33.7922,39
33.9779,36
34.1637,42
34.3494,42
34.5352,47
34.7210,57
34.9067,47
35.0925,43
35.2782,42
35.4640,40
35.6497,29
35.8355,41
36.0213,40
36.2070,42
36.3928,38
36.5785,40
36.7643,29
36.9500,34
37.1358,34
37.3215,32
37.5073,38
37.6931,34
37.8788,36
38.0646,31
38.2503,26
38.4361,23
38.6218,31
38.8076,37
38.9933,36
39.1791,38
39.3649,32
39.5506,23
39.7364,23
39.9221,28
40.1079,30
40.2936,28
40.4794,33
40.6652,26
40.8509,41
41.0367,38
41.2224,28
41.4082,27
41.5939,27
41.7797,25
41.9654,25
42.1512,26
42.3370,29
42.5227,31
42.7085,26
42.8942,18
43.0800,28
43.2657,20
43.4515,34
43.6372,42
43.8230,41
44.0088,24
44.1945,23
44.3803,34
44.5660,32
44.7518,25
44.9375,19
45.1233,36
45.3091,28
45.4948,21
45.6806,22
45.8663,24
46.0521,27
46.2378,20
46.4236,22
46.6093,27
46.7951,20
46.9809,31
47.1666,23
47.3524,27
47.5381,21
47.7239,27
47.9096,20
48.0954,27
48.2811,16
48.4669,19
48.6527,23
48.8384,23
49.0242,20
49.2099,27
49.3957,29
49.5814,18
49.7672,27
49.9530,13
50.1387,20
50.3245,20
50.5102,22
50.6960,24
50.8817,16
51.0675,15
51.2532,29
51.4390,21
51.6248,23
51.8105,22
51.9963,35
52.1820,35
52.3678,15
52.5535,21
52.7393,21
52.9250,9
53.1108,23
53.2966,14
53.4823,25
53.6681,27
53.8538,21
54.0396,20
54.2253,18
54.4111,30
54.5969,14
54.7826,27
54.9684,26
55.1541,20
55.3399,20
55.5256,15
55.7114,13
55.8971,20
56.0829,24
56.2687,29
56.4544,23
56.6402,19
56.8259,24
57.0117,26
57.1974,19
57.3832,17
57.5689,13
57.7547,24
57.9405,21
58.1262,21
58.3120,28
58.4977,14
58.6835,27
58.8692,17
59.0550,21
59.2408,17
59.4265,22
59.6123,17
59.7980,22
59.9838,17
60.0024,21