Folder: xrd_clustering/notebooks/data/xrd_data (part 8)

File: ML_20220718_34_SJD_4_LaB6-2min.uxd
; (content of file Y:\Sam\Apurva-07-20-2022\puck4\ML_20220718_34_SJD_0_LaB6-2min.raw)
_FILEVERSION = 3
_SAMPLE = ML_20220718_34_SJD_0_LaB6-2min
_+SAMPLE =
_SITE = USA
_USER = Administrator
_GONIOMETER_CODE = 20
; Goniometer : D8 theta/2theta, stage : Unknown
_ATTACHMENTS_CODE = 0
_GONIOMETER_RADIUS = 200.5
_FIXED_DIVSLIT = 0.6
_FIXED_SAMPLESLIT = 0
_SOLLER_SLITS = 2
_FIXED_DETSLIT = 9.55
_MONOCHROMATOR = 0
; Incident beam monochromator : None
_SOLLER_SLITS_2 = N
_THIN_FILM = N
_BETA_FILTER = Y
_FIXED_ANTISLIT = 5.89
_ANALYZER_CODE = 0
; Received beam analyzer : None
_DATEMEASURED = "26-Jul-2022 09:04:03"
_WL_UNIT = A
_WL1 = 1.5406
_WL2 = 1.54439
_WL3 = 1.39222
_WLRATIO = 0.5
_ANODE = Cu
_V4_INF_CREATOR = XRDWizard
_V4_INF_CREATOR_VERSION = V2.9.0.22
_V4_INF_WIZARD_VERSION = V2.9.0.22
_V4_INF_WIZARD_ADDINS = V2.9.0.22
_V4_INF_WIZARD_DOCTYPE = XRD
_V4_INF_OSUSER = McQueenLab
_V4_INF_USER = Administrator
_V4_INF_SITE = USA
_V4_INF_SAMPLEID = ML_20220718_34_SJD_0_LaB6-2min

; Data for range 1
_DRIVE = COUPLED
_STEPTIME = 5.64
_STEPSIZE = 0.0185756
_STEPMODE = C
_START = 5
_THETA = 2.5
_2THETA = 5
_KHI = 0
_PHI = 0
_X = 0
_Y = 0
_Z = 0
_DETECTOR = 5
; Detector type : Unknown
_DETECTORSLIT = unkn
_AUX1 = 0
_AUX2 = 0
_AUX3 = 0
_TIMESTARTED = 15
_TEMP_RATE = -1
_TEMP_DELAY = -1
_KV = 40
_MA = 40
_RANGE_WL = 1.5406
_3DPLANE = 0
_V4_ADDITIONALDETECTOR = 257
_V4_PSD2THETA = 3.4228
_V4_PSDCHANNEL1 = 0
_V4_PSDAPERTURE = 12.68
_V4_PSDTYPE = 5
_V4_PSDFIXED = 0
_V4_COUNTERS_MASK = 4096
_V4_DRIVES_MASK = 0
_V4_ENCODERS_MASK = 0
_2THETACOUNTS = 1
; 2THETA  PSD
   5.0000        124
   5.1858        128
   5.3715        101
   5.5573        108
   5.7430        111
   5.9288         96
   6.1145         90
   6.3003         78
   6.4860         92
   6.6718         88
   6.8576         97
   7.0433         94
   7.2291         81
   7.4148         92
   7.6006         94
   7.7863         90
   7.9721         86
   8.1579         94
   8.3436         73
   8.5294         88
   8.7151        108
   8.9009        102
   9.0866         94
   9.2724        120
   9.4581        119
   9.6439        111
   9.8297        101
  10.0154         98
  10.2012        116
  10.3869        117
  10.5727        138
  10.7584        120
  10.9442        119
  11.1299        124
  11.3157        110
  11.5015        129
  11.6872        103
  11.8730        107
  12.0587        125
  12.2445        115
  12.4302        105
  12.6160        110
  12.8018        119
  12.9875        101
  13.1733        109
  13.3590        111
  13.5448         95
  13.7305         95
  13.9163        103
  14.1020         93
  14.2878         84
  14.4736        103
  14.6593         82
  14.8451         94
  15.0308         69
  15.2166         97
  15.4023         80
  15.5881         84
  15.7738         80
  15.9596         71
  16.1454         94
  16.3311         77
  16.5169         77
  16.7026         86
  16.8884         69
  17.0741         89
  17.2599         88
  17.4457         63
  17.6314         88
  17.8172         69
  18.0029         87
  18.1887         57
  18.3744         94
  18.5602         80
  18.7459         88
  18.9317         79
  19.1175         93
  19.3032         69
  19.4890         83
  19.6747         84
  19.8605         74
  20.0462         81
  20.2320         91
  20.4177         98
  20.6035        103
  20.7893         74
  20.9750         97
  21.1608        100
  21.3465        258
  21.5323        112
  21.7180         91
  21.9038         92
  22.0896         91
  22.2753        109
  22.4611         85
  22.6468        109
  22.8326        104
  23.0183         84
  23.2041         75
  23.3898         87
  23.5756        117
  23.7614        117
  23.9471         85
  24.1329        111
  24.3186        108
  24.5044         95
  24.6901         98
  24.8759         95
  25.0616         97
  25.2474         85
  25.4332         87
  25.6189        101
  25.8047         92
  25.9904         99
  26.1762         95
  26.3619        106
  26.5477         98
  26.7335        103
  26.9192         89
  27.1050         84
  27.2907        107
  27.4765         94
  27.6622        106
  27.8480         98
  28.0337         68
  28.2195         71
  28.4053         82
  28.5910         96
  28.7768         89
  28.9625         76
  29.1483         86
  29.3340         74
  29.5198         83
  29.7055         56
  29.8913         79
  30.0771         72
  30.2628         81
  30.4486        136
  30.6343         70
  30.8201         74
  31.0058         83
  31.1916         68
  31.3774         64
  31.5631         60
  31.7489         68
  31.9346         63
  32.1204         68
  32.3061         75
  32.4919         82
  32.6776         84
  32.8634         63
  33.0492         66
  33.2349         64
  33.4207         54
  33.6064         58
  33.7922         47
  33.9779         53
  34.1637         51
  34.3494         50
  34.5352         66
  34.7210         68
  34.9067         75
  35.0925         49
  35.2782         50
  35.4640         46
  35.6497         40
  35.8355         56
  36.0213         49
  36.2070         44
  36.3928         50
  36.5785         60
  36.7643         56
  36.9500         47
  37.1358         54
  37.3215         41
  37.5073         56
  37.6931         50
  37.8788         42
  38.0646         40
  38.2503         41
  38.4361         50
  38.6218         37
  38.8076         34
  38.9933         36
  39.1791         52
  39.3649         37
  39.5506         29
  39.7364         33
  39.9221         38
  40.1079         45
  40.2936         35
  40.4794         38
  40.6652         40
  40.8509         36
  41.0367         46
  41.2224         50
  41.4082         44
  41.5939         27
  41.7797         38
  41.9654         29
  42.1512         39
  42.3370         32
  42.5227         48
  42.7085         37
  42.8942         49
  43.0800         38
  43.2657         47
  43.4515         37
  43.6372         37
  43.8230         23
  44.0088         30
  44.1945         45
  44.3803         36
  44.5660         30
  44.7518         32
  44.9375         27
  45.1233         34
  45.3091         28
  45.4948         27
  45.6806         30
  45.8663         32
  46.0521         24
  46.2378         34
  46.4236         33
  46.6093         30
  46.7951         25
  46.9809         40
  47.1666         34
  47.3524         36
  47.5381         36
  47.7239         33
  47.9096         40
  48.0954         35
  48.2811         31
  48.4669         32
  48.6527         32
  48.8384         27
  49.0242         41
  49.2099         27
  49.3957         21
  49.5814         25
  49.7672         24
  49.9530         27
  50.1387         29
  50.3245         37
  50.5102         31
  50.6960         24
  50.8817         30
  51.0675         38
  51.2532         33
  51.4390         26
  51.6248         36
  51.8105         19
  51.9963         24
  52.1820         29
  52.3678         24
  52.5535         37
  52.7393         37
  52.9250         21
  53.1108         33
  53.2966         28
  53.4823         29
  53.6681         24
  53.8538         33
  54.0396         39
  54.2253         32
  54.4111         21
  54.5969         26
  54.7826         24
  54.9684         28
  55.1541         17
  55.3399         34
  55.5256         14
  55.7114         24
  55.8971         25
  56.0829         33
  56.2687         33
  56.4544         24
  56.6402         29
  56.8259         30
  57.0117         31
  57.1974         36
  57.3832         32
  57.5689         27
  57.7547         38
  57.9405         28
  58.1262         31
  58.3120         31
  58.4977         19
  58.6835         28
  58.8692         36
  59.0550         28
  59.2408         21
  59.4265         29
  59.6123         19
  59.7980         41
  59.9838         37
  60.0024         34

File: ML_20220718_35_SJD_4_LaB6-2min.uxd
; (content of file Y:\Sam\Apurva-07-20-2022\puck4\ML_20220718_35_SJD_0_LaB6-2min.raw)
_FILEVERSION = 3
_SAMPLE = ML_20220718_35_SJD_0_LaB6-2min
_+SAMPLE =
_SITE = USA
_USER = Administrator
_GONIOMETER_CODE = 20
; Goniometer : D8 theta/2theta, stage : Unknown
_ATTACHMENTS_CODE = 0
_GONIOMETER_RADIUS = 200.5
_FIXED_DIVSLIT = 0.6
_FIXED_SAMPLESLIT = 0
_SOLLER_SLITS = 2
_FIXED_DETSLIT = 9.55
_MONOCHROMATOR = 0
; Incident beam monochromator : None
_SOLLER_SLITS_2 = N
_THIN_FILM = N
_BETA_FILTER = Y
_FIXED_ANTISLIT = 5.89
_ANALYZER_CODE = 0
; Received beam analyzer : None
_DATEMEASURED = "26-Jul-2022 09:01:39"
_WL_UNIT = A
_WL1 = 1.5406
_WL2 = 1.54439
_WL3 = 1.39222
_WLRATIO = 0.5
_ANODE = Cu
_V4_INF_CREATOR = XRDWizard
_V4_INF_CREATOR_VERSION = V2.9.0.22
_V4_INF_WIZARD_VERSION = V2.9.0.22
_V4_INF_WIZARD_ADDINS = V2.9.0.22
_V4_INF_WIZARD_DOCTYPE = XRD
_V4_INF_OSUSER = McQueenLab
_V4_INF_USER = Administrator
_V4_INF_SITE = USA
_V4_INF_SAMPLEID = ML_20220718_35_SJD_0_LaB6-2min

; Data for range 1
_DRIVE = COUPLED
_STEPTIME = 5.64
_STEPSIZE = 0.0185756
_STEPMODE = C
_START = 5
_THETA = 2.5
_2THETA = 5
_KHI = 0
_PHI = 0
_X = 0
_Y = 0
_Z = 0
_DETECTOR = 5
; Detector type : Unknown
_DETECTORSLIT = unkn
_AUX1 = 0
_AUX2 = 0
_AUX3 = 0
_TIMESTARTED = 15
_TEMP_RATE = -1
_TEMP_DELAY = -1
_KV = 40
_MA = 40
_RANGE_WL = 1.5406
_3DPLANE = 0
_V4_ADDITIONALDETECTOR = 257
_V4_PSD2THETA = 3.4189
_V4_PSDCHANNEL1 = 0
_V4_PSDAPERTURE = 12.68
_V4_PSDTYPE = 5
_V4_PSDFIXED = 0
_V4_COUNTERS_MASK = 4096
_V4_DRIVES_MASK = 0
_V4_ENCODERS_MASK = 0
_2THETACOUNTS = 1
; 2THETA  PSD
   5.0000        135
   5.1858         93
   5.3715        115
   5.5573        104
   5.7430         95
   5.9288         96
   6.1145         99
   6.3003         91
   6.4860        105
   6.6718         89
   6.8576         88
   7.0433         66
   7.2291         82
   7.4148         79
   7.6006         81
   7.7863         94
   7.9721        112
   8.1579         87
   8.3436        104
   8.5294         89
   8.7151        108
   8.9009        104
   9.0866         95
   9.2724        100
   9.4581        110
   9.6439        107
   9.8297        115
  10.0154        123
  10.2012        118
  10.3869        123
  10.5727        145
  10.7584        100
  10.9442        115
  11.1299        114
  11.3157        115
  11.5015        115
  11.6872        118
  11.8730        135
  12.0587        125
  12.2445        117
  12.4302         96
  12.6160        130
  12.8018        100
  12.9875         99
  13.1733        103
  13.3590        124
  13.5448         97
  13.7305         86
  13.9163         91
  14.1020         90
  14.2878         97
  14.4736         65
  14.6593         82
  14.8451         53
  15.0308         95
  15.2166         78
  15.4023         85
  15.5881         98
  15.7738         88
  15.9596        109
  16.1454         95
  16.3311         89
  16.5169         86
  16.7026         83
  16.8884         82
  17.0741         73
  17.2599         80
  17.4457         71
  17.6314         86
  17.8172         94
  18.0029         78
  18.1887         76
  18.3744         92
  18.5602         70
  18.7459         75
  18.9317         81
  19.1175         95
  19.3032         73
  19.4890         92
  19.6747         84
  19.8605         86
  20.0462         77
  20.2320         90
  20.4177         80
  20.6035         82
  20.7893         96
  20.9750         88
  21.1608        116
  21.3465        240
  21.5323         89
  21.7180         77
  21.9038         96
  22.0896         79
  22.2753        116
  22.4611        104
  22.6468        104
  22.8326         78
  23.0183         98
  23.2041         91
  23.3898         84
  23.5756         90
  23.7614         96
  23.9471        118
  24.1329         82
  24.3186        104
  24.5044         82
  24.6901         84
  24.8759        104
  25.0616        105
  25.2474        104
  25.4332         94
  25.6189         88
  25.8047         92
  25.9904        107
  26.1762         96
  26.3619        120
  26.5477        111
  26.7335        102
  26.9192         97
  27.1050        105
  27.2907         97
  27.4765         77
  27.6622         96
  27.8480         88
  28.0337        103
  28.2195         94
  28.4053         83
  28.5910         84
  28.7768         90
  28.9625         88
  29.1483         76
  29.3340         94
  29.5198         72
  29.7055         61
  29.8913         90
  30.0771         79
  30.2628         81
  30.4486        131
  30.6343         80
  30.8201         75
  31.0058         83
  31.1916         61
  31.3774         72
  31.5631         75
  31.7489         76
  31.9346         76
  32.1204         69
  32.3061         52
  32.4919         70
  32.6776         68
  32.8634         62
  33.0492         65
  33.2349         69
  33.4207         65
  33.6064         50
  33.7922         62
  33.9779         62
  34.1637         51
  34.3494         55
  34.5352         55
  34.7210         66
  34.9067         69
  35.0925         66
  35.2782         58
  35.4640         43
  35.6497         58
  35.8355         60
  36.0213         39
  36.2070         52
  36.3928         53
  36.5785         50
  36.7643         42
  36.9500         53
  37.1358         50
  37.3215         42
  37.5073         56
  37.6931         40
  37.8788         41
  38.0646         41
  38.2503         40
  38.4361         41
  38.6218         31
  38.8076         55
  38.9933         36
  39.1791         50
  39.3649         41
  39.5506         31
  39.7364         36
  39.9221         32
  40.1079         34
  40.2936         35
  40.4794         37
  40.6652         33
  40.8509         37
  41.0367         27
  41.2224         41
  41.4082         43
  41.5939         26
  41.7797         36
  41.9654         31
  42.1512         41
  42.3370         41
  42.5227         35
  42.7085         49
  42.8942         35
  43.0800         30
  43.2657         45
  43.4515         52
  43.6372         69
  43.8230         40
  44.0088         38
  44.1945         35
  44.3803         40
  44.5660         38
  44.7518         47
  44.9375         36
  45.1233         31
  45.3091         31
  45.4948         33
  45.6806         27
  45.8663         48
  46.0521         33
  46.2378         34
  46.4236         36
  46.6093         18
  46.7951         26
  46.9809         32
  47.1666         32
  47.3524         39
  47.5381         31
  47.7239         32
  47.9096         29
  48.0954         37
  48.2811         22
  48.4669         32
  48.6527         35
  48.8384         32
  49.0242         39
  49.2099         35
  49.3957         23
  49.5814         28
  49.7672         29
  49.9530         34
  50.1387         35
  50.3245         37
  50.5102         23
  50.6960         34
  50.8817         33
  51.0675         30
  51.2532         34
  51.4390         31
  51.6248         29
  51.8105         37
  51.9963         27
  52.1820         27
  52.3678         22
  52.5535         29
  52.7393         27
  52.9250         39
  53.1108         18
  53.2966         18
  53.4823         40
  53.6681         33
  53.8538         35
  54.0396         36
  54.2253         37
  54.4111         34
  54.5969         30
  54.7826         31
  54.9684         33
  55.1541         26
  55.3399         23
  55.5256         24
  55.7114         26
  55.8971         25
  56.0829         27
  56.2687         26
  56.4544         28
  56.6402         27
  56.8259         25
  57.0117         34
  57.1974         28
  57.3832         35
  57.5689         31
  57.7547         33
  57.9405         34
  58.1262         19
  58.3120         29
  58.4977         31
  58.6835         33
  58.8692         23
  59.0550         28
  59.2408         26
  59.4265         30
  59.6123         32
  59.7980         27
  59.9838         25
  60.0024         25

File: ML_20220718_36_SJD_4_LaB6-2min.uxd
; (content of file Y:\Sam\Apurva-07-20-2022\puck4\ML_20220718_36_SJD_0_LaB6-2min.raw)
_FILEVERSION = 3
_SAMPLE = ML_20220718_36_SJD_0_LaB6-2min
_+SAMPLE =
_SITE = USA
_USER = Administrator
_GONIOMETER_CODE = 20
; Goniometer : D8 theta/2theta, stage : Unknown
_ATTACHMENTS_CODE = 0
_GONIOMETER_RADIUS = 200.5
_FIXED_DIVSLIT = 0.6
_FIXED_SAMPLESLIT = 0
_SOLLER_SLITS = 2
_FIXED_DETSLIT = 9.55
_MONOCHROMATOR = 0
; Incident beam monochromator : None
_SOLLER_SLITS_2 = N
_THIN_FILM = N
_BETA_FILTER = Y
_FIXED_ANTISLIT = 5.89
_ANALYZER_CODE = 0
; Received beam analyzer : None
_DATEMEASURED = "26-Jul-2022 08:59:16"
_WL_UNIT = A
_WL1 = 1.5406
_WL2 = 1.54439
_WL3 = 1.39222
_WLRATIO = 0.5
_ANODE = Cu
_V4_INF_CREATOR = XRDWizard
_V4_INF_CREATOR_VERSION = V2.9.0.22
_V4_INF_WIZARD_VERSION = V2.9.0.22
_V4_INF_WIZARD_ADDINS = V2.9.0.22
_V4_INF_WIZARD_DOCTYPE = XRD
_V4_INF_OSUSER = McQueenLab
_V4_INF_USER = Administrator
_V4_INF_SITE = USA
_V4_INF_SAMPLEID = ML_20220718_36_SJD_0_LaB6-2min

; Data for range 1
_DRIVE = COUPLED
_STEPTIME = 5.64
_STEPSIZE = 0.0185756
_STEPMODE = C
_START = 5
_THETA = 2.5
_2THETA = 5
_KHI = 0
_PHI = 0
_X = 0
_Y = 0
_Z = 0
_DETECTOR = 5
; Detector type : Unknown
_DETECTORSLIT = unkn
_AUX1 = 0
_AUX2 = 0
_AUX3 = 0
_TIMESTARTED = 15
_TEMP_RATE = -1
_TEMP_DELAY = -1
_KV = 40
_MA = 40
_RANGE_WL = 1.5406
_3DPLANE = 0
_V4_ADDITIONALDETECTOR = 257
_V4_PSD2THETA = 3.4185
_V4_PSDCHANNEL1 = 0
_V4_PSDAPERTURE = 12.68
_V4_PSDTYPE = 5
_V4_PSDFIXED = 0
_V4_COUNTERS_MASK = 4096
_V4_DRIVES_MASK = 0
_V4_ENCODERS_MASK = 0
_2THETACOUNTS = 1
; 2THETA  PSD
   5.0000        120
   5.1858        130
   5.3715        103
   5.5573        119
   5.7430        107
   5.9288        103
   6.1145        118
   6.3003         90
   6.4860         94
   6.6718         87
   6.8576         73
   7.0433         85
   7.2291         99
   7.4148         79
   7.6006         93
   7.7863         92
   7.9721         74
   8.1579         85
   8.3436         97
   8.5294        116
   8.7151        120
   8.9009         85
   9.0866         92
   9.2724        101
   9.4581        109
   9.6439        110
   9.8297        113
  10.0154        129
  10.2012        110
  10.3869        119
  10.5727        114
  10.7584        115
  10.9442        134
  11.1299        109
  11.3157        121
  11.5015        126
  11.6872        105
  11.8730        106
  12.0587        119
  12.2445         96
  12.4302        100
  12.6160        105
  12.8018         94
  12.9875        100
  13.1733         89
  13.3590         79
  13.5448         85
  13.7305         89
  13.9163         85
  14.1020         68
  14.2878         87
  14.4736         92
  14.6593         98
  14.8451         81
  15.0308         86
  15.2166         73
  15.4023         98
  15.5881         97
  15.7738         91
  15.9596         78
  16.1454         82
  16.3311         82
  16.5169         77
  16.7026         77
  16.8884         93
  17.0741         83
  17.2599         76
  17.4457         72
  17.6314         76
  17.8172         73
  18.0029         67
  18.1887         79
  18.3744         86
  18.5602         81
  18.7459         75
  18.9317         77
  19.1175         90
  19.3032         83
  19.4890         99
  19.6747         85
  19.8605         81
  20.0462         85
  20.2320         94
  20.4177         99
  20.6035        107
  20.7893         81
  20.9750         77
  21.1608        109
  21.3465        238
  21.5323         79
  21.7180         68
  21.9038        103
  22.0896         84
  22.2753         96
  22.4611         95
  22.6468         86
  22.8326        102
  23.0183         98
  23.2041         92
  23.3898        105
  23.5756        101
  23.7614         93
  23.9471        105
  24.1329         97
  24.3186         97
  24.5044         82
  24.6901        101
  24.8759         96
  25.0616         94
  25.2474        105
  25.4332         95
  25.6189         89
  25.8047         96
  25.9904         81
  26.1762         82
  26.3619         89
  26.5477         95
  26.7335         89
  26.9192         95
  27.1050         97
  27.2907        120
  27.4765         85
  27.6622         98
  27.8480         85
  28.0337         87
  28.2195         80
  28.4053         82
  28.5910         79
  28.7768         85
  28.9625         79
  29.1483         80
  29.3340         85
  29.5198         83
  29.7055         64
  29.8913         84
  30.0771         87
  30.2628         77
  30.4486        121
  30.6343         58
  30.8201         61
  31.0058         69
  31.1916         63
  31.3774         84
  31.5631         66
  31.7489         50
  31.9346         73
  32.1204         64
  32.3061         63
  32.4919         81
  32.6776         64
  32.8634         55
  33.0492         53
  33.2349         64
  33.4207         64
  33.6064         62
  33.7922         49
  33.9779         43
  34.1637         71
  34.3494         53
  34.5352         57
  34.7210         70
  34.9067         61
  35.0925         54
  35.2782         55
  35.4640         50
  35.6497         54
  35.8355         46
  36.0213         32
  36.2070         50
  36.3928         43
  36.5785         45
  36.7643         40
  36.9500         47
  37.1358         48
  37.3215         44
  37.5073         59
  37.6931         47
  37.8788         39
  38.0646         38
  38.2503         51
  38.4361         28
  38.6218         43
  38.8076         58
  38.9933         38
  39.1791         53
  39.3649         34
  39.5506         34
  39.7364         31
  39.9221         32
  40.1079         39
  40.2936         43
  40.4794         40
  40.6652         31
  40.8509         26
  41.0367         46
  41.2224         34
  41.4082         32
  41.5939         37
  41.7797         26
  41.9654         31
  42.1512         33
  42.3370         37
  42.5227         36
  42.7085         33
  42.8942         42
  43.0800         34
  43.2657         38
  43.4515         43
  43.6372         45
  43.8230         37
  44.0088         28
  44.1945         36
  44.3803         43
  44.5660         43
  44.7518         39
  44.9375         30
  45.1233         40
  45.3091         34
  45.4948         36
  45.6806         31
  45.8663         33
  46.0521         44
  46.2378         32
  46.4236         25
  46.6093         23
  46.7951         40
  46.9809         24
  47.1666         25
  47.3524         23
  47.5381         26
  47.7239         34
  47.9096         29
  48.0954         32
  48.2811         38
  48.4669         33
  48.6527         20
  48.8384         28
  49.0242         32
  49.2099         28
  49.3957         25
  49.5814         31
  49.7672         23
  49.9530         20
  50.1387         20
  50.3245         25
  50.5102         39
  50.6960         29
  50.8817         27
  51.0675         20
  51.2532         27
  51.4390         31
  51.6248         33
  51.8105         39
  51.9963         33
  52.1820         29
  52.3678         28
  52.5535         32
  52.7393         39
  52.9250         28
  53.1108         27
  53.2966         25
  53.4823         27
  53.6681         29
  53.8538         17
  54.0396         45
  54.2253         23
  54.4111         29
  54.5969         18
  54.7826         28
  54.9684         32
  55.1541         32
  55.3399         24
  55.5256         38
  55.7114         30
  55.8971         27
  56.0829         32
  56.2687         31
  56.4544         24
  56.6402         37
  56.8259         27
  57.0117         31
  57.1974         28
  57.3832         27
  57.5689         26
  57.7547         34
  57.9405         33
  58.1262         21
  58.3120         25
  58.4977         23
  58.6835         24
  58.8692         27
  59.0550         25
  59.2408         27
  59.4265         27
  59.6123         24
  59.7980         30
  59.9838         32
  60.0024         23