Folder: xrd_clustering/notebooks/data/xrd_data (part 24)

File: ML_20220718_58_SJD_4_LaB6-2min.uxd
; (content of file Y:\Sam\Apurva-07-20-2022\puck4\ML_20220718_58_SJD_4_LaB6-2min.raw)
_FILEVERSION = 3
_SAMPLE = ML_20220718_58_SJD_4_LaB6-2min
_+SAMPLE =
_SITE = USA
_USER = Administrator
_GONIOMETER_CODE = 20
; Goniometer : D8 theta/2theta, stage : Unknown
_ATTACHMENTS_CODE = 0
_GONIOMETER_RADIUS = 200.5
_FIXED_DIVSLIT = 0.6
_FIXED_SAMPLESLIT = 0
_SOLLER_SLITS = 2
_FIXED_DETSLIT = 9.55
_MONOCHROMATOR = 0
; Incident beam monochromator : None
_SOLLER_SLITS_2 = N
_THIN_FILM = N
_BETA_FILTER = Y
_FIXED_ANTISLIT = 5.89
_ANALYZER_CODE = 0
; Received beam analyzer : None
_DATEMEASURED = "26-Jul-2022 12:46:46"
_WL_UNIT = A
_WL1 = 1.5406
_WL2 = 1.54439
_WL3 = 1.39222
_WLRATIO = 0.5
_ANODE = Cu
_V4_INF_CREATOR = XRDWizard
_V4_INF_CREATOR_VERSION = V2.9.0.22
_V4_INF_WIZARD_VERSION = V2.9.0.22
_V4_INF_WIZARD_ADDINS = V2.9.0.22
_V4_INF_WIZARD_DOCTYPE = XRD
_V4_INF_OSUSER = McQueenLab
_V4_INF_USER = Administrator
_V4_INF_SITE = USA
_V4_INF_SAMPLEID = ML_20220718_58_SJD_4_LaB6-2min

; Data for range 1
_DRIVE = COUPLED
_STEPTIME = 5.64
_STEPSIZE = 0.0185756
_STEPMODE = C
_START = 5
_THETA = 2.5
_2THETA = 5
_KHI = 0
_PHI = 0
_X = 0
_Y = 0
_Z = 0
_DETECTOR = 5
; Detector type : Unknown
_DETECTORSLIT = unkn
_AUX1 = 0
_AUX2 = 0
_AUX3 = 0
_TIMESTARTED = 14
_TEMP_RATE = -1
_TEMP_DELAY = -1
_KV = 40
_MA = 40
_RANGE_WL = 1.5406
_3DPLANE = 0
_V4_ADDITIONALDETECTOR = 257
_V4_PSD2THETA = 3.4183
_V4_PSDCHANNEL1 = 0
_V4_PSDAPERTURE = 12.68
_V4_PSDTYPE = 5
_V4_PSDFIXED = 0
_V4_COUNTERS_MASK = 4096
_V4_DRIVES_MASK = 0
_V4_ENCODERS_MASK = 0
_2THETACOUNTS = 1
; 2THETA  PSD
   5.0000        114
   5.1858        126
   5.3715        118
   5.5573        111
   5.7430        104
   5.9288         86
   6.1145         90
   6.3003         95
   6.4860         82
   6.6718         83
   6.8576         76
   7.0433         85
   7.2291         77
   7.4148         86
   7.6006         77
   7.7863         87
   7.9721         78
   8.1579         91
   8.3436         94
   8.5294         75
   8.7151         97
   8.9009        100
   9.0866        107
   9.2724        104
   9.4581        119
   9.6439        101
   9.8297        118
  10.0154        123
  10.2012        108
  10.3869        126
  10.5727        126
  10.7584        118
  10.9442        123
  11.1299        113
  11.3157        118
  11.5015        111
  11.6872        103
  11.8730        113
  12.0587        110
  12.2445         85
  12.4302        107
  12.6160        116
  12.8018         95
  12.9875        118
  13.1733        113
  13.3590         70
  13.5448         87
  13.7305         84
  13.9163         94
  14.1020         89
  14.2878         78
  14.4736         91
  14.6593        100
  14.8451         64
  15.0308         81
  15.2166         82
  15.4023         66
  15.5881         80
  15.7738         66
  15.9596         76
  16.1454         62
  16.3311        108
  16.5169         81
  16.7026         84
  16.8884         80
  17.0741         78
  17.2599         87
  17.4457         73
  17.6314         85
  17.8172         93
  18.0029         80
  18.1887         91
  18.3744         92
  18.5602         74
  18.7459         85
  18.9317        100
  19.1175         73
  19.3032         83
  19.4890         75
  19.6747         74
  19.8605         69
  20.0462         84
  20.2320         89
  20.4177         82
  20.6035         74
  20.7893        102
  20.9750        105
  21.1608        110
  21.3465        241
  21.5323         99
  21.7180         97
  21.9038         89
  22.0896         94
  22.2753         89
  22.4611         93
  22.6468         89
  22.8326         79
  23.0183        104
  23.2041         92
  23.3898         91
  23.5756         85
  23.7614         76
  23.9471        108
  24.1329         99
  24.3186        110
  24.5044         82
  24.6901         94
  24.8759         99
  25.0616         82
  25.2474         79
  25.4332         99
  25.6189        117
  25.8047         99
  25.9904         83
  26.1762         83
  26.3619         89
  26.5477         99
  26.7335         91
  26.9192        101
  27.1050         98
  27.2907        109
  27.4765         95
  27.6622         82
  27.8480         76
  28.0337         81
  28.2195         97
  28.4053         95
  28.5910         74
  28.7768         81
  28.9625         83
  29.1483         85
  29.3340         78
  29.5198         76
  29.7055         84
  29.8913         84
  30.0771         74
  30.2628         95
  30.4486         95
  30.6343         84
  30.8201         78
  31.0058         66
  31.1916         74
  31.3774         66
  31.5631         82
  31.7489         58
  31.9346         57
  32.1204         62
  32.3061         73
  32.4919         64
  32.6776         73
  32.8634         60
  33.0492         54
  33.2349         61
  33.4207         56
  33.6064         55
  33.7922         59
  33.9779         60
  34.1637         52
  34.3494         55
  34.5352         54
  34.7210         76
  34.9067         61
  35.0925         45
  35.2782         41
  35.4640         35
  35.6497         51
  35.8355         49
  36.0213         48
  36.2070         46
  36.3928         55
  36.5785         59
  36.7643         44
  36.9500         33
  37.1358         45
  37.3215         37
  37.5073         53
  37.6931         41
  37.8788         44
  38.0646         51
  38.2503         41
  38.4361         55
  38.6218         38
  38.8076         49
  38.9933         32
  39.1791         41
  39.3649         40
  39.5506         42
  39.7364         42
  39.9221         43
  40.1079         44
  40.2936         45
  40.4794         46
  40.6652         40
  40.8509         35
  41.0367         40
  41.2224         41
  41.4082         42
  41.5939         46
  41.7797         27
  41.9654         33
  42.1512         35
  42.3370         38
  42.5227         36
  42.7085         38
  42.8942         37
  43.0800         40
  43.2657         43
  43.4515         38
  43.6372         44
  43.8230         30
  44.0088         41
  44.1945         34
  44.3803         32
  44.5660         31
  44.7518         39
  44.9375         26
  45.1233         28
  45.3091         27
  45.4948         35
  45.6806         34
  45.8663         36
  46.0521         28
  46.2378         44
  46.4236         20
  46.6093         28
  46.7951         33
  46.9809         30
  47.1666         29
  47.3524         36
  47.5381         29
  47.7239         29
  47.9096         35
  48.0954         26
  48.2811         28
  48.4669         24
  48.6527         32
  48.8384         37
  49.0242         35
  49.2099         23
  49.3957         34
  49.5814         28
  49.7672         31
  49.9530         38
  50.1387         29
  50.3245         27
  50.5102         30
  50.6960         25
  50.8817         27
  51.0675         31
  51.2532         23
  51.4390         37
  51.6248         39
  51.8105         39
  51.9963         24
  52.1820         23
  52.3678         21
  52.5535         32
  52.7393         29
  52.9250         22
  53.1108         31
  53.2966         30
  53.4823         31
  53.6681         37
  53.8538         33
  54.0396         29
  54.2253         35
  54.4111         35
  54.5969         31
  54.7826         26
  54.9684         31
  55.1541         30
  55.3399         24
  55.5256         30
  55.7114         15
  55.8971         38
  56.0829         16
  56.2687         27
  56.4544         36
  56.6402         24
  56.8259         19
  57.0117         19
  57.1974         32
  57.3832         24
  57.5689         30
  57.7547         18
  57.9405         29
  58.1262         22
  58.3120         24
  58.4977         26
  58.6835         21
  58.8692         25
  59.0550         27
  59.2408         31
  59.4265         25
  59.6123         38
  59.7980         32
  59.9838         27
  60.0024         25

File: ML_20220718_58_SJD_4_LaB6-4min.uxd
; (content of file Y:\Sam\Apurva-07-20-2022\puck4\ML_20220718_58_SJD_4_LaB6-4min.raw)
_FILEVERSION = 3
_SAMPLE = ML_20220718_58_SJD_4_LaB6-4min
_+SAMPLE =
_SITE = USA
_USER = Administrator
_GONIOMETER_CODE = 20
; Goniometer : D8 theta/2theta, stage : Unknown
_ATTACHMENTS_CODE = 0
_GONIOMETER_RADIUS = 200.5
_FIXED_DIVSLIT = 0.6
_FIXED_SAMPLESLIT = 0
_SOLLER_SLITS = 2
_FIXED_DETSLIT = 9.55
_MONOCHROMATOR = 0
; Incident beam monochromator : None
_SOLLER_SLITS_2 = N
_THIN_FILM = N
_BETA_FILTER = Y
_FIXED_ANTISLIT = 5.89
_ANALYZER_CODE = 0
; Received beam analyzer : None
_DATEMEASURED = "26-Jul-2022 14:40:55"
_WL_UNIT = A
_WL1 = 1.5406
_WL2 = 1.54439
_WL3 = 1.39222
_WLRATIO = 0.5
_ANODE = Cu
_V4_INF_CREATOR = XRDWizard
_V4_INF_CREATOR_VERSION = V2.9.0.22
_V4_INF_WIZARD_VERSION = V2.9.0.22
_V4_INF_WIZARD_ADDINS = V2.9.0.22
_V4_INF_WIZARD_DOCTYPE = XRD
_V4_INF_OSUSER = McQueenLab
_V4_INF_USER = Administrator
_V4_INF_SITE = USA
_V4_INF_SAMPLEID = ML_20220718_58_SJD_4_LaB6-4min

; Data for range 1
_DRIVE = COUPLED
_STEPTIME = 11.28
_STEPSIZE = 0.0185756
_STEPMODE = C
_START = 5
_THETA = 2.5
_2THETA = 5
_KHI = 0
_PHI = 0
_X = 0
_Y = 0
_Z = 0
_DETECTOR = 5
; Detector type : Unknown
_DETECTORSLIT = unkn
_AUX1 = 0
_AUX2 = 0
_AUX3 = 0
_TIMESTARTED = 15
_TEMP_RATE = -1
_TEMP_DELAY = -1
_KV = 40
_MA = 40
_RANGE_WL = 1.5406
_3DPLANE = 0
_V4_ADDITIONALDETECTOR = 257
_V4_PSD2THETA = 3.3891
_V4_PSDCHANNEL1 = 0
_V4_PSDAPERTURE = 12.68
_V4_PSDTYPE = 5
_V4_PSDFIXED = 0
_V4_COUNTERS_MASK = 4096
_V4_DRIVES_MASK = 0
_V4_ENCODERS_MASK = 0
_2THETACOUNTS = 1
; 2THETA  PSD
   5.0000        283
   5.1858        241
   5.3715        241
   5.5573        239
   5.7430        214
   5.9288        201
   6.1145        190
   6.3003        176
   6.4860        211
   6.6718        150
   6.8576        184
   7.0433        157
   7.2291        145
   7.4148        185
   7.6006        172
   7.7863        177
   7.9721        178
   8.1579        206
   8.3436        180
   8.5294        214
   8.7151        176
   8.9009        211
   9.0866        224
   9.2724        250
   9.4581        213
   9.6439        209
   9.8297        251
  10.0154        235
  10.2012        268
  10.3869        226
  10.5727        234
  10.7584        253
  10.9442        233
  11.1299        240
  11.3157        232
  11.5015        281
  11.6872        261
  11.8730        252
  12.0587        254
  12.2445        247
  12.4302        200
  12.6160        221
  12.8018        235
  12.9875        225
  13.1733        212
  13.3590        228
  13.5448        201
  13.7305        188
  13.9163        186
  14.1020        191
  14.2878        173
  14.4736        157
  14.6593        148
  14.8451        157
  15.0308        195
  15.2166        162
  15.4023        164
  15.5881        141
  15.7738        128
  15.9596        130
  16.1454        160
  16.3311        164
  16.5169        178
  16.7026        169
  16.8884        160
  17.0741        154
  17.2599        162
  17.4457        167
  17.6314        151
  17.8172        165
  18.0029        162
  18.1887        183
  18.3744        169
  18.5602        176
  18.7459        142
  18.9317        169
  19.1175        164
  19.3032        169
  19.4890        144
  19.6747        144
  19.8605        166
  20.0462        195
  20.2320        205
  20.4177        192
  20.6035        170
  20.7893        175
  20.9750        223
  21.1608        231
  21.3465        517
  21.5323        177
  21.7180        199
  21.9038        190
  22.0896        215
  22.2753        183
  22.4611        213
  22.6468        193
  22.8326        180
  23.0183        209
  23.2041        215
  23.3898        215
  23.5756        216
  23.7614        217
  23.9471        199
  24.1329        194
  24.3186        218
  24.5044        209
  24.6901        175
  24.8759        174
  25.0616        191
  25.2474        178
  25.4332        173
  25.6189        180
  25.8047        170
  25.9904        196
  26.1762        174
  26.3619        168
  26.5477        169
  26.7335        189
  26.9192        214
  27.1050        195
  27.2907        231
  27.4765        195
  27.6622        168
  27.8480        182
  28.0337        166
  28.2195        174
  28.4053        186
  28.5910        159
  28.7768        154
  28.9625        160
  29.1483        163
  29.3340        177
  29.5198        153
  29.7055        170
  29.8913        145
  30.0771        163
  30.2628        183
  30.4486        275
  30.6343        155
  30.8201        131
  31.0058        136
  31.1916        155
  31.3774        141
  31.5631        145
  31.7489        150
  31.9346        124
  32.1204        132
  32.3061        138
  32.4919        143
  32.6776        124
  32.8634        129
  33.0492        151
  33.2349        118
  33.4207        118
  33.6064         85
  33.7922        120
  33.9779        104
  34.1637        105
  34.3494        105
  34.5352        131
  34.7210        159
  34.9067        128
  35.0925         94
  35.2782        114
  35.4640         79
  35.6497         90
  35.8355         85
  36.0213         96
  36.2070         96
  36.3928        114
  36.5785         90
  36.7643        104
  36.9500         85
  37.1358        103
  37.3215        101
  37.5073        117
  37.6931         77
  37.8788         82
  38.0646         98
  38.2503         86
  38.4361         74
  38.6218         75
  38.8076         88
  38.9933         73
  39.1791         84
  39.3649         90
  39.5506         71
  39.7364         77
  39.9221         71
  40.1079         73
  40.2936         77
  40.4794         75
  40.6652         74
  40.8509         66
  41.0367         97
  41.2224         65
  41.4082         77
  41.5939         62
  41.7797         66
  41.9654         75
  42.1512         74
  42.3370         72
  42.5227         67
  42.7085         84
  42.8942         74
  43.0800         86
  43.2657         88
  43.4515         89
  43.6372         94
  43.8230         70
  44.0088         73
  44.1945         69
  44.3803         69
  44.5660         78
  44.7518         80
  44.9375         82
  45.1233         64
  45.3091         73
  45.4948         65
  45.6806         51
  45.8663         62
  46.0521         62
  46.2378         65
  46.4236         57
  46.6093         63
  46.7951         67
  46.9809         71
  47.1666         57
  47.3524         77
  47.5381         66
  47.7239         57
  47.9096         63
  48.0954         61
  48.2811         69
  48.4669         72
  48.6527         82
  48.8384         65
  49.0242         77
  49.2099         55
  49.3957         53
  49.5814         71
  49.7672         60
  49.9530         72
  50.1387         71
  50.3245         51
  50.5102         52
  50.6960         47
  50.8817         51
  51.0675         68
  51.2532         64
  51.4390         81
  51.6248         55
  51.8105         70
  51.9963         65
  52.1820         65
  52.3678         60
  52.5535         64
  52.7393         55
  52.9250         65
  53.1108         60
  53.2966         54
  53.4823         81
  53.6681         66
  53.8538         56
  54.0396         66
  54.2253         70
  54.4111         71
  54.5969         61
  54.7826         62
  54.9684         43
  55.1541         69
  55.3399         51
  55.5256         59
  55.7114         53
  55.8971         43
  56.0829         43
  56.2687         60
  56.4544         66
  56.6402         55
  56.8259         46
  57.0117         47
  57.1974         48
  57.3832         41
  57.5689         53
  57.7547         54
  57.9405         71
  58.1262         51
  58.3120         57
  58.4977         51
  58.6835         51
  58.8692         70
  59.0550         56
  59.2408         53
  59.4265         48
  59.6123         60
  59.7980         59
  59.9838         60
  60.0024         43

File: ML_20220718_59_SJD_4_LaB6-1min.csv
;,2THETA,
5.0000,102
5.1858,83
5.3715,76
5.5573,75
5.7430,85
5.9288,78
6.1145,81
6.3003,81
6.4860,59
6.6718,67
6.8576,64
7.0433,53
7.2291,66
7.4148,51
7.6006,57
7.7863,59
7.9721,46
8.1579,60
8.3436,71
8.5294,61
8.7151,71
8.9009,60
9.0866,63
9.2724,66
9.4581,102
9.6439,51
9.8297,90
10.0154,91
10.2012,85
10.3869,91
10.5727,85
10.7584,83
10.9442,104
11.1299,83
11.3157,86
11.5015,91
11.6872,95
11.8730,83
12.0587,84
12.2445,85
12.4302,92
12.6160,79
12.8018,91
12.9875,94
13.1733,73
13.3590,73
13.5448,72
13.7305,58
13.9163,72
14.1020,70
14.2878,54
14.4736,61
14.6593,68
14.8451,68
15.0308,61
15.2166,58
15.4023,53
15.5881,71
15.7738,58
15.9596,53
16.1454,55
16.3311,54
16.5169,62
16.7026,82
16.8884,66
17.0741,69
17.2599,72
17.4457,71
17.6314,53
17.8172,64
18.0029,55
18.1887,70
18.3744,66
18.5602,48
18.7459,58
18.9317,65
19.1175,65
19.3032,54
19.4890,67
19.6747,65
19.8605,55
20.0462,69
20.2320,66
20.4177,67
20.6035,65
20.7893,70
20.9750,62
21.1608,91
21.3465,181
21.5323,79
21.7180,70
21.9038,79
22.0896,83
22.2753,74
22.4611,71
22.6468,67
22.8326,89
23.0183,63
23.2041,77
23.3898,75
23.5756,69
23.7614,85
23.9471,83
24.1329,61
24.3186,78
24.5044,84
24.6901,73
24.8759,63
25.0616,68
25.2474,59
25.4332,75
25.6189,56
25.8047,58
25.9904,65
26.1762,59
26.3619,72
26.5477,80
26.7335,61
26.9192,54
27.1050,83
27.2907,84
27.4765,69
27.6622,58
27.8480,76
28.0337,69
28.2195,60
28.4053,63
28.5910,69
28.7768,60
28.9625,51
29.1483,62
29.3340,54
29.5198,67
29.7055,69
29.8913,63
30.0771,51
30.2628,73
30.4486,84
30.6343,60
30.8201,55
31.0058,64
31.1916,55
31.3774,51
31.5631,58
31.7489,43
31.9346,48
32.1204,49
32.3061,52
32.4919,46
32.6776,36
32.8634,55
33.0492,57
33.2349,49
33.4207,47
33.6064,47
33.7922,37
33.9779,36
34.1637,48
34.3494,53
34.5352,42
34.7210,60
34.9067,34
35.0925,31
35.2782,41
35.4640,46
35.6497,31
35.8355,46
36.0213,44
36.2070,32
36.3928,39
36.5785,29
36.7643,35
36.9500,21
37.1358,35
37.3215,47
37.5073,48
37.6931,27
37.8788,29
38.0646,30
38.2503,29
38.4361,34
38.6218,37
38.8076,30
38.9933,32
39.1791,18
39.3649,20
39.5506,27
39.7364,30
39.9221,26
40.1079,27
40.2936,22
40.4794,29
40.6652,15
40.8509,32
41.0367,43
41.2224,23
41.4082,37
41.5939,30
41.7797,27
41.9654,30
42.1512,31
42.3370,29
42.5227,32
42.7085,24
42.8942,25
43.0800,30
43.2657,35
43.4515,35
43.6372,45
43.8230,26
44.0088,26
44.1945,24
44.3803,25
44.5660,29
44.7518,31
44.9375,22
45.1233,33
45.3091,22
45.4948,19
45.6806,26
45.8663,16
46.0521,22
46.2378,25
46.4236,29
46.6093,28
46.7951,19
46.9809,24
47.1666,21
47.3524,28
47.5381,24
47.7239,19
47.9096,27
48.0954,22
48.2811,21
48.4669,23
48.6527,25
48.8384,23
49.0242,32
49.2099,32
49.3957,18
49.5814,21
49.7672,13
49.9530,25
50.1387,23
50.3245,26
50.5102,27
50.6960,18
50.8817,25
51.0675,19
51.2532,20
51.4390,24
51.6248,23
51.8105,30
51.9963,23
52.1820,25
52.3678,12
52.5535,17
52.7393,15
52.9250,26
53.1108,23
53.2966,20
53.4823,18
53.6681,18
53.8538,11
54.0396,28
54.2253,18
54.4111,18
54.5969,17
54.7826,22
54.9684,22
55.1541,22
55.3399,19
55.5256,20
55.7114,20
55.8971,20
56.0829,22
56.2687,18
56.4544,24
56.6402,21
56.8259,23
57.0117,22
57.1974,20
57.3832,13
57.5689,16
57.7547,14
57.9405,13
58.1262,19
58.3120,27
58.4977,23
58.6835,19
58.8692,22
59.0550,21
59.2408,22
59.4265,16
59.6123,12
59.7980,15
59.9838,20
60.0024,23

File: ML_20220718_59_SJD_4_LaB6-2min.csv
;,2THETA,
5.0000,122
5.1858,129
5.3715,126
5.5573,123
5.7430,103
5.9288,98
6.1145,95
6.3003,86
6.4860,86
6.6718,80
6.8576,75
7.0433,74
7.2291,88
7.4148,85
7.6006,83
7.7863,72
7.9721,95
8.1579,101
8.3436,108
8.5294,102
8.7151,106
8.9009,78
9.0866,98
9.2724,109
9.4581,110
9.6439,112
9.8297,118
10.0154,118
10.2012,123
10.3869,111
10.5727,133
10.7584,126
10.9442,113
11.1299,99
11.3157,112
11.5015,116
11.6872,124
11.8730,97
12.0587,120
12.2445,123
12.4302,100
12.6160,111
12.8018,96
12.9875,102
13.1733,94
13.3590,83
13.5448,99
13.7305,89
13.9163,104
14.1020,98
14.2878,79
14.4736,73
14.6593,98
14.8451,71
15.0308,73
15.2166,90
15.4023,80
15.5881,90
15.7738,89
15.9596,86
16.1454,79
16.3311,87
16.5169,91
16.7026,91
16.8884,67
17.0741,79
17.2599,72
17.4457,74
17.6314,81
17.8172,59
18.0029,70
18.1887,71
18.3744,83
18.5602,89
18.7459,78
18.9317,100
19.1175,78
19.3032,84
19.4890,92
19.6747,85
19.8605,80
20.0462,88
20.2320,89
20.4177,74
20.6035,104
20.7893,74
20.9750,97
21.1608,106
21.3465,239
21.5323,105
21.7180,78
21.9038,98
22.0896,93
22.2753,96
22.4611,105
22.6468,102
22.8326,108
23.0183,84
23.2041,100
23.3898,100
23.5756,92
23.7614,87
23.9471,98
24.1329,106
24.3186,105
24.5044,101
24.6901,109
24.8759,116
25.0616,117
25.2474,109
25.4332,96
25.6189,118
25.8047,110
25.9904,92
26.1762,86
26.3619,80
26.5477,96
26.7335,85
26.9192,80
27.1050,101
27.2907,108
27.4765,94
27.6622,107
27.8480,81
28.0337,79
28.2195,80
28.4053,90
28.5910,95
28.7768,85
28.9625,73
29.1483,68
29.3340,75
29.5198,86
29.7055,87
29.8913,76
30.0771,73
30.2628,60
30.4486,111
30.6343,64
30.8201,79
31.0058,85
31.1916,59
31.3774,49
31.5631,68
31.7489,78
31.9346,90
32.1204,57
32.3061,69
32.4919,73
32.6776,64
32.8634,53
33.0492,62
33.2349,59
33.4207,54
33.6064,60
33.7922,46
33.9779,54
34.1637,53
34.3494,55
34.5352,49
34.7210,76
34.9067,54
35.0925,54
35.2782,57
35.4640,39
35.6497,46
35.8355,45
36.0213,44
36.2070,47
36.3928,55
36.5785,40
36.7643,40
36.9500,38
37.1358,44
37.3215,59
37.5073,52
37.6931,35
37.8788,28
38.0646,37
38.2503,45
38.4361,48
38.6218,43
38.8076,47
38.9933,48
39.1791,44
39.3649,45
39.5506,33
39.7364,32
39.9221,49
40.1079,48
40.2936,36
40.4794,46
40.6652,41
40.8509,54
41.0367,49
41.2224,27
41.4082,35
41.5939,40
41.7797,38
41.9654,37
42.1512,41
42.3370,40
42.5227,31
42.7085,31
42.8942,39
43.0800,29
43.2657,40
43.4515,44
43.6372,53
43.8230,31
44.0088,35
44.1945,38
44.3803,43
44.5660,32
44.7518,43
44.9375,36
45.1233,29
45.3091,27
45.4948,41
45.6806,38
45.8663,30
46.0521,30
46.2378,34
46.4236,24
46.6093,34
46.7951,36
46.9809,23
47.1666,25
47.3524,35
47.5381,32
47.7239,32
47.9096,28
48.0954,23
48.2811,32
48.4669,28
48.6527,29
48.8384,43
49.0242,46
49.2099,26
49.3957,32
49.5814,24
49.7672,19
49.9530,37
50.1387,31
50.3245,25
50.5102,37
50.6960,25
50.8817,30
51.0675,28
51.2532,27
51.4390,31
51.6248,25
51.8105,25
51.9963,17
52.1820,28
52.3678,28
52.5535,23
52.7393,31
52.9250,25
53.1108,37
53.2966,25
53.4823,26
53.6681,32
53.8538,21
54.0396,34
54.2253,36
54.4111,25
54.5969,31
54.7826,28
54.9684,32
55.1541,24
55.3399,40
55.5256,30
55.7114,52
55.8971,28
56.0829,40
56.2687,26
56.4544,36
56.6402,18
56.8259,32
57.0117,26
57.1974,30
57.3832,38
57.5689,25
57.7547,36
57.9405,25
58.1262,33
58.3120,31
58.4977,22
58.6835,27
58.8692,22
59.0550,35
59.2408,26
59.4265,27
59.6123,30
59.7980,37
59.9838,27
60.0024,27

File: ML_20220718_59_SJD_4_LaB6-4min.csv
;,2THETA,
5.0000,275
5.1858,223
5.3715,230
5.5573,209
5.7430,208
5.9288,225
6.1145,196
6.3003,195
6.4860,182
6.6718,150
6.8576,160
7.0433,164
7.2291,154
7.4148,141
7.6006,168
7.7863,191
7.9721,176
8.1579,175
8.3436,214
8.5294,227
8.7151,205
8.9009,225
9.0866,202
9.2724,231
9.4581,192
9.6439,210
9.8297,219
10.0154,231
10.2012,236
10.3869,230
10.5727,245
10.7584,236
10.9442,259
11.1299,222
11.3157,223
11.5015,239
11.6872,203
11.8730,218
12.0587,230
12.2445,227
12.4302,251
12.6160,202
12.8018,170
12.9875,202
13.1733,219
13.3590,197
13.5448,212
13.7305,195
13.9163,185
14.1020,196
14.2878,166
14.4736,191
14.6593,165
14.8451,176
15.0308,160
15.2166,174
15.4023,171
15.5881,196
15.7738,138
15.9596,191
16.1454,169
16.3311,156
16.5169,169
16.7026,150
16.8884,142
17.0741,174
17.2599,165
17.4457,151
17.6314,166
17.8172,158
18.0029,162
18.1887,156
18.3744,169
18.5602,171
18.7459,176
18.9317,180
19.1175,162
19.3032,179
19.4890,162
19.6747,173
19.8605,203
20.0462,190
20.2320,174
20.4177,189
20.6035,190
20.7893,193
20.9750,221
21.1608,267
21.3465,512
21.5323,226
21.7180,177
21.9038,201
22.0896,183
22.2753,186
22.4611,208
22.6468,178
22.8326,205
23.0183,187
23.2041,185
23.3898,212
23.5756,187
23.7614,200
23.9471,217
24.1329,224
24.3186,230
24.5044,222
24.6901,194
24.8759,180
25.0616,201
25.2474,204
25.4332,191
25.6189,183
25.8047,184
25.9904,185
26.1762,181
26.3619,180
26.5477,185
26.7335,199
26.9192,177
27.1050,194
27.2907,212
27.4765,191
27.6622,178
27.8480,172
28.0337,171
28.2195,183
28.4053,174
28.5910,159
28.7768,176
28.9625,169
29.1483,153
29.3340,156
29.5198,153
29.7055,163
29.8913,154
30.0771,183
30.2628,185
30.4486,260
30.6343,158
30.8201,134
31.0058,141
31.1916,152
31.3774,146
31.5631,132
31.7489,120
31.9346,135
32.1204,121
32.3061,134
32.4919,159
32.6776,147
32.8634,129
33.0492,128
33.2349,120
33.4207,124
33.6064,110
33.7922,133
33.9779,115
34.1637,121
34.3494,116
34.5352,113
34.7210,164
34.9067,104
35.0925,120
35.2782,89
35.4640,96
35.6497,98
35.8355,97
36.0213,113
36.2070,98
36.3928,90
36.5785,90
36.7643,84
36.9500,84
37.1358,79
37.3215,106
37.5073,133
37.6931,92
37.8788,76
38.0646,111
38.2503,85
38.4361,94
38.6218,85
38.8076,75
38.9933,90
39.1791,84
39.3649,70
39.5506,74
39.7364,80
39.9221,101
40.1079,80
40.2936,71
40.4794,79
40.6652,66
40.8509,76
41.0367,85
41.2224,77
41.4082,82
41.5939,72
41.7797,73
41.9654,64
42.1512,74
42.3370,73
42.5227,81
42.7085,72
42.8942,87
43.0800,70
43.2657,96
43.4515,89
43.6372,102
43.8230,93
44.0088,58
44.1945,69
44.3803,68
44.5660,89
44.7518,74
44.9375,71
45.1233,71
45.3091,50
45.4948,81
45.6806,71
45.8663,65
46.0521,76
46.2378,70
46.4236,72
46.6093,65
46.7951,71
46.9809,72
47.1666,61
47.3524,56
47.5381,58
47.7239,69
47.9096,58
48.0954,71
48.2811,60
48.4669,76
48.6527,65
48.8384,70
49.0242,75
49.2099,65
49.3957,63
49.5814,50
49.7672,60
49.9530,57
50.1387,58
50.3245,59
50.5102,85
50.6960,65
50.8817,55
51.0675,57
51.2532,57
51.4390,64
51.6248,58
51.8105,72
51.9963,66
52.1820,64
52.3678,57
52.5535,69
52.7393,63
52.9250,53
53.1108,60
53.2966,68
53.4823,58
53.6681,60
53.8538,58
54.0396,71
54.2253,56
54.4111,58
54.5969,52
54.7826,71
54.9684,54
55.1541,50
55.3399,49
55.5256,57
55.7114,51
55.8971,70
56.0829,57
56.2687,58
56.4544,55
56.6402,48
56.8259,61
57.0117,67
57.1974,54
57.3832,50
57.5689,65
57.7547,46
57.9405,50
58.1262,66
58.3120,59
58.4977,62
58.6835,50
58.8692,47
59.0550,67
59.2408,60
59.4265,60
59.6123,60
59.7980,37
59.9838,63
60.0024,66