Folder: xrd_clustering/notebooks/data/xrd_data (part 16)

File: ML_20220718_49_SJD_4_LaB6-2min.uxd
; (content of file Y:\Sam\Apurva-07-20-2022\puck4\ML_20220718_49_SJD_4_LaB6-2min.raw)
_FILEVERSION = 3
_SAMPLE = ML_20220718_49_SJD_4_LaB6-2min
_+SAMPLE =
_SITE = USA
_USER = Administrator
_GONIOMETER_CODE = 20
; Goniometer : D8 theta/2theta, stage : Unknown
_ATTACHMENTS_CODE = 0
_GONIOMETER_RADIUS = 200.5
_FIXED_DIVSLIT = 0.6
_FIXED_SAMPLESLIT = 0
_SOLLER_SLITS = 2
_FIXED_DETSLIT = 9.55
_MONOCHROMATOR = 0
; Incident beam monochromator : None
_SOLLER_SLITS_2 = N
_THIN_FILM = N
_BETA_FILTER = Y
_FIXED_ANTISLIT = 5.89
_ANALYZER_CODE = 0
; Received beam analyzer : None
_DATEMEASURED = "26-Jul-2022 12:25:15"
_WL_UNIT = A
_WL1 = 1.5406
_WL2 = 1.54439
_WL3 = 1.39222
_WLRATIO = 0.5
_ANODE = Cu
_V4_INF_CREATOR = XRDWizard
_V4_INF_CREATOR_VERSION = V2.9.0.22
_V4_INF_WIZARD_VERSION = V2.9.0.22
_V4_INF_WIZARD_ADDINS = V2.9.0.22
_V4_INF_WIZARD_DOCTYPE = XRD
_V4_INF_OSUSER = McQueenLab
_V4_INF_USER = Administrator
_V4_INF_SITE = USA
_V4_INF_SAMPLEID = ML_20220718_49_SJD_4_LaB6-2min

; Data for range 1
_DRIVE = COUPLED
_STEPTIME = 5.64
_STEPSIZE = 0.0185756
_STEPMODE = C
_START = 5
_THETA = 2.5
_2THETA = 5
_KHI = 0
_PHI = 0
_X = 0
_Y = 0
_Z = 0
_DETECTOR = 5
; Detector type : Unknown
_DETECTORSLIT = unkn
_AUX1 = 0
_AUX2 = 0
_AUX3 = 0
_TIMESTARTED = 15
_TEMP_RATE = -1
_TEMP_DELAY = -1
_KV = 40
_MA = 40
_RANGE_WL = 1.5406
_3DPLANE = 0
_V4_ADDITIONALDETECTOR = 257
_V4_PSD2THETA = 3.373
_V4_PSDCHANNEL1 = 0
_V4_PSDAPERTURE = 12.68
_V4_PSDTYPE = 5
_V4_PSDFIXED = 0
_V4_COUNTERS_MASK = 4096
_V4_DRIVES_MASK = 0
_V4_ENCODERS_MASK = 0
_2THETACOUNTS = 1
; 2THETA  PSD
   5.0000        123
   5.1858        132
   5.3715        117
   5.5573        129
   5.7430         85
   5.9288        119
   6.1145         93
   6.3003         96
   6.4860         75
   6.6718        102
   6.8576         75
   7.0433         79
   7.2291         76
   7.4148         88
   7.6006         80
   7.7863         92
   7.9721         92
   8.1579         92
   8.3436        108
   8.5294        101
   8.7151        113
   8.9009        116
   9.0866         99
   9.2724        125
   9.4581        136
   9.6439        113
   9.8297        125
  10.0154        107
  10.2012        119
  10.3869        132
  10.5727        110
  10.7584        122
  10.9442        106
  11.1299        118
  11.3157        115
  11.5015        101
  11.6872        121
  11.8730        119
  12.0587        116
  12.2445        106
  12.4302        103
  12.6160         88
  12.8018        104
  12.9875         90
  13.1733         89
  13.3590        106
  13.5448         98
  13.7305        111
  13.9163        101
  14.1020        110
  14.2878         75
  14.4736        100
  14.6593         70
  14.8451         87
  15.0308         74
  15.2166         91
  15.4023         78
  15.5881         80
  15.7738         86
  15.9596         83
  16.1454         78
  16.3311         63
  16.5169         69
  16.7026         87
  16.8884        102
  17.0741         79
  17.2599         74
  17.4457         83
  17.6314         83
  17.8172         75
  18.0029         85
  18.1887         80
  18.3744         83
  18.5602         86
  18.7459         89
  18.9317         81
  19.1175         81
  19.3032         81
  19.4890         89
  19.6747         79
  19.8605         83
  20.0462         83
  20.2320         88
  20.4177         91
  20.6035        100
  20.7893         99
  20.9750         88
  21.1608        126
  21.3465        233
  21.5323        107
  21.7180        106
  21.9038        103
  22.0896         91
  22.2753         94
  22.4611        103
  22.6468         91
  22.8326         77
  23.0183         97
  23.2041        107
  23.3898         78
  23.5756         89
  23.7614         89
  23.9471        100
  24.1329        107
  24.3186        127
  24.5044         95
  24.6901        109
  24.8759         80
  25.0616         97
  25.2474        112
  25.4332        102
  25.6189         78
  25.8047         98
  25.9904        104
  26.1762        115
  26.3619        102
  26.5477         75
  26.7335         68
  26.9192        111
  27.1050         93
  27.2907         99
  27.4765         83
  27.6622         98
  27.8480         80
  28.0337         79
  28.2195         83
  28.4053         85
  28.5910         80
  28.7768         68
  28.9625         76
  29.1483         61
  29.3340         75
  29.5198         53
  29.7055         79
  29.8913         70
  30.0771         72
  30.2628         76
  30.4486        123
  30.6343         72
  30.8201         74
  31.0058         73
  31.1916         86
  31.3774         78
  31.5631         79
  31.7489         68
  31.9346         66
  32.1204         72
  32.3061         82
  32.4919         75
  32.6776         62
  32.8634         57
  33.0492         60
  33.2349         56
  33.4207         63
  33.6064         71
  33.7922         55
  33.9779         72
  34.1637         50
  34.3494         58
  34.5352         57
  34.7210         60
  34.9067         63
  35.0925         62
  35.2782         43
  35.4640         54
  35.6497         57
  35.8355         55
  36.0213         46
  36.2070         58
  36.3928         58
  36.5785         50
  36.7643         48
  36.9500         43
  37.1358         36
  37.3215         43
  37.5073         69
  37.6931         47
  37.8788         40
  38.0646         32
  38.2503         47
  38.4361         48
  38.6218         28
  38.8076         40
  38.9933         31
  39.1791         38
  39.3649         32
  39.5506         34
  39.7364         38
  39.9221         32
  40.1079         44
  40.2936         39
  40.4794         43
  40.6652         36
  40.8509         44
  41.0367         43
  41.2224         54
  41.4082         39
  41.5939         30
  41.7797         33
  41.9654         32
  42.1512         37
  42.3370         33
  42.5227         33
  42.7085         34
  42.8942         30
  43.0800         35
  43.2657         36
  43.4515         41
  43.6372         41
  43.8230         31
  44.0088         32
  44.1945         32
  44.3803         32
  44.5660         38
  44.7518         41
  44.9375         41
  45.1233         28
  45.3091         38
  45.4948         35
  45.6806         26
  45.8663         29
  46.0521         30
  46.2378         37
  46.4236         39
  46.6093         28
  46.7951         39
  46.9809         32
  47.1666         45
  47.3524         42
  47.5381         45
  47.7239         26
  47.9096         38
  48.0954         27
  48.2811         34
  48.4669         31
  48.6527         35
  48.8384         41
  49.0242         43
  49.2099         24
  49.3957         35
  49.5814         22
  49.7672         25
  49.9530         23
  50.1387         30
  50.3245         35
  50.5102         29
  50.6960         31
  50.8817         25
  51.0675         30
  51.2532         31
  51.4390         32
  51.6248         34
  51.8105         38
  51.9963         34
  52.1820         28
  52.3678         18
  52.5535         24
  52.7393         34
  52.9250         28
  53.1108         24
  53.2966         25
  53.4823         24
  53.6681         29
  53.8538         23
  54.0396         36
  54.2253         30
  54.4111         29
  54.5969         25
  54.7826         28
  54.9684         33
  55.1541         26
  55.3399         27
  55.5256         23
  55.7114         30
  55.8971         23
  56.0829         34
  56.2687         34
  56.4544         29
  56.6402         26
  56.8259         27
  57.0117         32
  57.1974         35
  57.3832         38
  57.5689         26
  57.7547         34
  57.9405         20
  58.1262         21
  58.3120         29
  58.4977         25
  58.6835         21
  58.8692         23
  59.0550         32
  59.2408         25
  59.4265         26
  59.6123         31
  59.7980         27
  59.9838         38
  60.0024         24

File: ML_20220718_49_SJD_4_LaB6-4min.uxd
; (content of file Y:\Sam\Apurva-07-20-2022\puck4\ML_20220718_49_SJD_4_LaB6-4min.raw)
_FILEVERSION = 3
_SAMPLE = ML_20220718_49_SJD_4_LaB6-4min
_+SAMPLE =
_SITE = USA
_USER = Administrator
_GONIOMETER_CODE = 20
; Goniometer : D8 theta/2theta, stage : Unknown
_ATTACHMENTS_CODE = 0
_GONIOMETER_RADIUS = 200.5
_FIXED_DIVSLIT = 0.6
_FIXED_SAMPLESLIT = 0
_SOLLER_SLITS = 2
_FIXED_DETSLIT = 9.55
_MONOCHROMATOR = 0
; Incident beam monochromator : None
_SOLLER_SLITS_2 = N
_THIN_FILM = N
_BETA_FILTER = Y
_FIXED_ANTISLIT = 5.89
_ANALYZER_CODE = 0
; Received beam analyzer : None
_DATEMEASURED = "26-Jul-2022 13:56:19"
_WL_UNIT = A
_WL1 = 1.5406
_WL2 = 1.54439
_WL3 = 1.39222
_WLRATIO = 0.5
_ANODE = Cu
_V4_INF_CREATOR = XRDWizard
_V4_INF_CREATOR_VERSION = V2.9.0.22
_V4_INF_WIZARD_VERSION = V2.9.0.22
_V4_INF_WIZARD_ADDINS = V2.9.0.22
_V4_INF_WIZARD_DOCTYPE = XRD
_V4_INF_OSUSER = McQueenLab
_V4_INF_USER = Administrator
_V4_INF_SITE = USA
_V4_INF_SAMPLEID = ML_20220718_49_SJD_4_LaB6-4min

; Data for range 1
_DRIVE = COUPLED
_STEPTIME = 11.28
_STEPSIZE = 0.0185756
_STEPMODE = C
_START = 5
_THETA = 2.5
_2THETA = 5
_KHI = 0
_PHI = 0
_X = 0
_Y = 0
_Z = 0
_DETECTOR = 5
; Detector type : Unknown
_DETECTORSLIT = unkn
_AUX1 = 0
_AUX2 = 0
_AUX3 = 0
_TIMESTARTED = 15
_TEMP_RATE = -1
_TEMP_DELAY = -1
_KV = 40
_MA = 40
_RANGE_WL = 1.5406
_3DPLANE = 0
_V4_ADDITIONALDETECTOR = 257
_V4_PSD2THETA = 3.3663
_V4_PSDCHANNEL1 = 0
_V4_PSDAPERTURE = 12.68
_V4_PSDTYPE = 5
_V4_PSDFIXED = 0
_V4_COUNTERS_MASK = 4096
_V4_DRIVES_MASK = 0
_V4_ENCODERS_MASK = 0
_2THETACOUNTS = 1
; 2THETA  PSD
   5.0000        247
   5.1858        247
   5.3715        220
   5.5573        235
   5.7430        204
   5.9288        206
   6.1145        216
   6.3003        165
   6.4860        178
   6.6718        160
   6.8576        181
   7.0433        188
   7.2291        152
   7.4148        176
   7.6006        175
   7.7863        180
   7.9721        193
   8.1579        173
   8.3436        203
   8.5294        205
   8.7151        237
   8.9009        173
   9.0866        216
   9.2724        200
   9.4581        233
   9.6439        252
   9.8297        219
  10.0154        221
  10.2012        197
  10.3869        236
  10.5727        259
  10.7584        237
  10.9442        248
  11.1299        224
  11.3157        204
  11.5015        233
  11.6872        252
  11.8730        266
  12.0587        215
  12.2445        231
  12.4302        231
  12.6160        243
  12.8018        209
  12.9875        216
  13.1733        175
  13.3590        209
  13.5448        187
  13.7305        183
  13.9163        186
  14.1020        170
  14.2878        210
  14.4736        180
  14.6593        175
  14.8451        183
  15.0308        153
  15.2166        169
  15.4023        148
  15.5881        159
  15.7738        148
  15.9596        185
  16.1454        173
  16.3311        188
  16.5169        167
  16.7026        171
  16.8884        161
  17.0741        149
  17.2599        181
  17.4457        170
  17.6314        177
  17.8172        150
  18.0029        160
  18.1887        154
  18.3744        155
  18.5602        159
  18.7459        178
  18.9317        164
  19.1175        177
  19.3032        143
  19.4890        165
  19.6747        188
  19.8605        173
  20.0462        187
  20.2320        180
  20.4177        169
  20.6035        180
  20.7893        187
  20.9750        209
  21.1608        222
  21.3465        474
  21.5323        217
  21.7180        198
  21.9038        177
  22.0896        207
  22.2753        219
  22.4611        195
  22.6468        212
  22.8326        178
  23.0183        210
  23.2041        190
  23.3898        186
  23.5756        185
  23.7614        182
  23.9471        209
  24.1329        234
  24.3186        219
  24.5044        193
  24.6901        196
  24.8759        195
  25.0616        199
  25.2474        221
  25.4332        196
  25.6189        195
  25.8047        185
  25.9904        183
  26.1762        180
  26.3619        178
  26.5477        205
  26.7335        180
  26.9192        195
  27.1050        198
  27.2907        211
  27.4765        181
  27.6622        189
  27.8480        173
  28.0337        158
  28.2195        178
  28.4053        174
  28.5910        176
  28.7768        177
  28.9625        173
  29.1483        168
  29.3340        163
  29.5198        156
  29.7055        177
  29.8913        146
  30.0771        148
  30.2628        157
  30.4486        226
  30.6343        140
  30.8201        144
  31.0058        153
  31.1916        143
  31.3774        149
  31.5631        150
  31.7489        115
  31.9346        131
  32.1204        126
  32.3061        140
  32.4919        182
  32.6776        139
  32.8634        140
  33.0492        104
  33.2349        125
  33.4207        105
  33.6064        124
  33.7922        118
  33.9779        109
  34.1637        122
  34.3494        117
  34.5352        105
  34.7210        157
  34.9067        115
  35.0925        109
  35.2782         86
  35.4640        117
  35.6497        118
  35.8355        113
  36.0213        103
  36.2070        103
  36.3928         92
  36.5785        103
  36.7643        106
  36.9500         91
  37.1358         95
  37.3215        111
  37.5073        114
  37.6931         92
  37.8788         93
  38.0646         87
  38.2503         89
  38.4361         85
  38.6218         69
  38.8076         93
  38.9933         90
  39.1791         79
  39.3649         77
  39.5506         78
  39.7364         86
  39.9221        101
  40.1079         85
  40.2936         74
  40.4794         85
  40.6652         75
  40.8509         71
  41.0367         81
  41.2224         94
  41.4082         79
  41.5939         79
  41.7797         72
  41.9654         91
  42.1512         77
  42.3370         84
  42.5227         87
  42.7085         78
  42.8942         72
  43.0800         72
  43.2657         79
  43.4515        104
  43.6372         97
  43.8230         81
  44.0088         68
  44.1945         73
  44.3803         76
  44.5660         79
  44.7518         70
  44.9375         88
  45.1233         71
  45.3091         67
  45.4948         62
  45.6806         83
  45.8663         61
  46.0521         56
  46.2378         69
  46.4236         75
  46.6093         81
  46.7951         68
  46.9809         50
  47.1666         52
  47.3524         68
  47.5381         71
  47.7239         68
  47.9096         53
  48.0954         66
  48.2811         69
  48.4669         68
  48.6527         60
  48.8384         66
  49.0242         82
  49.2099         70
  49.3957         60
  49.5814         65
  49.7672         61
  49.9530         73
  50.1387         59
  50.3245         63
  50.5102         61
  50.6960         45
  50.8817         60
  51.0675         55
  51.2532         59
  51.4390         75
  51.6248         44
  51.8105         56
  51.9963         57
  52.1820         52
  52.3678         59
  52.5535         57
  52.7393         49
  52.9250         40
  53.1108         68
  53.2966         56
  53.4823         48
  53.6681         49
  53.8538         60
  54.0396         57
  54.2253         66
  54.4111         60
  54.5969         54
  54.7826         61
  54.9684         61
  55.1541         48
  55.3399         45
  55.5256         60
  55.7114         44
  55.8971         64
  56.0829         45
  56.2687         62
  56.4544         57
  56.6402         56
  56.8259         53
  57.0117         45
  57.1974         61
  57.3832         59
  57.5689         51
  57.7547         61
  57.9405         58
  58.1262         58
  58.3120         58
  58.4977         56
  58.6835         55
  58.8692         54
  59.0550         42
  59.2408         59
  59.4265         53
  59.6123         54
  59.7980         51
  59.9838         68
  60.0024         57

File: ML_20220718_50_SJD_4_LaB6-1min.csv
;,2THETA,
5.0000,120
5.1858,81
5.3715,106
5.5573,75
5.7430,80
5.9288,78
6.1145,78
6.3003,73
6.4860,52
6.6718,65
6.8576,62
7.0433,55
7.2291,49
7.4148,49
7.6006,63
7.7863,68
7.9721,81
8.1579,80
8.3436,80
8.5294,54
8.7151,70
8.9009,67
9.0866,76
9.2724,78
9.4581,79
9.6439,68
9.8297,97
10.0154,101
10.2012,85
10.3869,79
10.5727,100
10.7584,82
10.9442,90
11.1299,91
11.3157,92
11.5015,82
11.6872,81
11.8730,101
12.0587,78
12.2445,83
12.4302,94
12.6160,86
12.8018,66
12.9875,89
13.1733,78
13.3590,85
13.5448,62
13.7305,57
13.9163,68
14.1020,77
14.2878,68
14.4736,74
14.6593,67
14.8451,51
15.0308,52
15.2166,58
15.4023,72
15.5881,69
15.7738,62
15.9596,71
16.1454,36
16.3311,57
16.5169,50
16.7026,43
16.8884,58
17.0741,60
17.2599,56
17.4457,51
17.6314,64
17.8172,61
18.0029,73
18.1887,64
18.3744,78
18.5602,60
18.7459,66
18.9317,53
19.1175,61
19.3032,58
19.4890,73
19.6747,55
19.8605,68
20.0462,70
20.2320,54
20.4177,63
20.6035,56
20.7893,82
20.9750,72
21.1608,94
21.3465,193
21.5323,70
21.7180,50
21.9038,74
22.0896,73
22.2753,77
22.4611,68
22.6468,79
22.8326,94
23.0183,62
23.2041,60
23.3898,89
23.5756,75
23.7614,78
23.9471,79
24.1329,71
24.3186,85
24.5044,71
24.6901,72
24.8759,70
25.0616,71
25.2474,57
25.4332,72
25.6189,62
25.8047,65
25.9904,69
26.1762,66
26.3619,67
26.5477,71
26.7335,66
26.9192,52
27.1050,79
27.2907,69
27.4765,66
27.6622,76
27.8480,66
28.0337,67
28.2195,60
28.4053,61
28.5910,62
28.7768,53
28.9625,62
29.1483,50
29.3340,54
29.5198,49
29.7055,53
29.8913,70
30.0771,58
30.2628,70
30.4486,111
30.6343,58
30.8201,60
31.0058,50
31.1916,54
31.3774,50
31.5631,64
31.7489,46
31.9346,56
32.1204,48
32.3061,57
32.4919,65
32.6776,54
32.8634,43
33.0492,49
33.2349,57
33.4207,33
33.6064,35
33.7922,45
33.9779,43
34.1637,39
34.3494,41
34.5352,40
34.7210,34
34.9067,49
35.0925,42
35.2782,36
35.4640,49
35.6497,40
35.8355,37
36.0213,39
36.2070,37
36.3928,40
36.5785,26
36.7643,46
36.9500,28
37.1358,35
37.3215,40
37.5073,31
37.6931,47
37.8788,30
38.0646,41
38.2503,27
38.4361,31
38.6218,28
38.8076,42
38.9933,41
39.1791,19
39.3649,27
39.5506,33
39.7364,36
39.9221,31
40.1079,26
40.2936,34
40.4794,29
40.6652,20
40.8509,24
41.0367,31
41.2224,23
41.4082,27
41.5939,26
41.7797,29
41.9654,29
42.1512,29
42.3370,23
42.5227,16
42.7085,34
42.8942,33
43.0800,32
43.2657,35
43.4515,27
43.6372,47
43.8230,25
44.0088,28
44.1945,25
44.3803,32
44.5660,36
44.7518,24
44.9375,21
45.1233,19
45.3091,25
45.4948,32
45.6806,24
45.8663,21
46.0521,20
46.2378,19
46.4236,26
46.6093,24
46.7951,28
46.9809,27
47.1666,26
47.3524,16
47.5381,29
47.7239,29
47.9096,23
48.0954,25
48.2811,22
48.4669,25
48.6527,31
48.8384,18
49.0242,24
49.2099,26
49.3957,27
49.5814,22
49.7672,29
49.9530,33
50.1387,23
50.3245,23
50.5102,16
50.6960,23
50.8817,31
51.0675,21
51.2532,25
51.4390,34
51.6248,20
51.8105,18
51.9963,20
52.1820,22
52.3678,21
52.5535,36
52.7393,21
52.9250,17
53.1108,27
53.2966,26
53.4823,14
53.6681,25
53.8538,29
54.0396,24
54.2253,19
54.4111,20
54.5969,12
54.7826,25
54.9684,28
55.1541,23
55.3399,26
55.5256,23
55.7114,28
55.8971,19
56.0829,25
56.2687,21
56.4544,14
56.6402,12
56.8259,31
57.0117,17
57.1974,23
57.3832,30
57.5689,18
57.7547,17
57.9405,19
58.1262,17
58.3120,20
58.4977,20
58.6835,13
58.8692,18
59.0550,21
59.2408,20
59.4265,18
59.6123,24
59.7980,14
59.9838,15
60.0024,17