Folder: xrd_clustering/notebooks/data/xrd_data (part 7)

File: ML_20220718_31_SJD_4_LaB6-2min.uxd
; (content of file Y:\Sam\Apurva-07-20-2022\puck4\ML_20220718_31_SJD_0_LaB6-2min.raw)
_FILEVERSION = 3
_SAMPLE = ML_20220718_31_SJD_0_LaB6-2min
_+SAMPLE =
_SITE = USA
_USER = Administrator
_GONIOMETER_CODE = 20
; Goniometer : D8 theta/2theta, stage : Unknown
_ATTACHMENTS_CODE = 0
_GONIOMETER_RADIUS = 200.5
_FIXED_DIVSLIT = 0.6
_FIXED_SAMPLESLIT = 0
_SOLLER_SLITS = 2
_FIXED_DETSLIT = 9.55
_MONOCHROMATOR = 0
; Incident beam monochromator : None
_SOLLER_SLITS_2 = N
_THIN_FILM = N
_BETA_FILTER = Y
_FIXED_ANTISLIT = 5.89
_ANALYZER_CODE = 0
; Received beam analyzer : None
_DATEMEASURED = "26-Jul-2022 09:11:14"
_WL_UNIT = A
_WL1 = 1.5406
_WL2 = 1.54439
_WL3 = 1.39222
_WLRATIO = 0.5
_ANODE = Cu
_V4_INF_CREATOR = XRDWizard
_V4_INF_CREATOR_VERSION = V2.9.0.22
_V4_INF_WIZARD_VERSION = V2.9.0.22
_V4_INF_WIZARD_ADDINS = V2.9.0.22
_V4_INF_WIZARD_DOCTYPE = XRD
_V4_INF_OSUSER = McQueenLab
_V4_INF_USER = Administrator
_V4_INF_SITE = USA
_V4_INF_SAMPLEID = ML_20220718_31_SJD_0_LaB6-2min

; Data for range 1
_DRIVE = COUPLED
_STEPTIME = 5.64
_STEPSIZE = 0.0185756
_STEPMODE = C
_START = 5
_THETA = 2.5
_2THETA = 5
_KHI = 0
_PHI = 0
_X = 0
_Y = 0
_Z = 0
_DETECTOR = 5
; Detector type : Unknown
_DETECTORSLIT = unkn
_AUX1 = 0
_AUX2 = 0
_AUX3 = 0
_TIMESTARTED = 15
_TEMP_RATE = -1
_TEMP_DELAY = -1
_KV = 40
_MA = 40
_RANGE_WL = 1.5406
_3DPLANE = 0
_V4_ADDITIONALDETECTOR = 257
_V4_PSD2THETA = 3.4183
_V4_PSDCHANNEL1 = 0
_V4_PSDAPERTURE = 12.68
_V4_PSDTYPE = 5
_V4_PSDFIXED = 0
_V4_COUNTERS_MASK = 4096
_V4_DRIVES_MASK = 0
_V4_ENCODERS_MASK = 0
_2THETACOUNTS = 1
; 2THETA  PSD
   5.0000        119
   5.1858        121
   5.3715         99
   5.5573        102
   5.7430        114
   5.9288        110
   6.1145         99
   6.3003         91
   6.4860         82
   6.6718        103
   6.8576         90
   7.0433         65
   7.2291         92
   7.4148         74
   7.6006         81
   7.7863         80
   7.9721        103
   8.1579         91
   8.3436         96
   8.5294         84
   8.7151         85
   8.9009         92
   9.0866        111
   9.2724        124
   9.4581        122
   9.6439        116
   9.8297        113
  10.0154        142
  10.2012        122
  10.3869        130
  10.5727        127
  10.7584        121
  10.9442        114
  11.1299        106
  11.3157        112
  11.5015        122
  11.6872        101
  11.8730        109
  12.0587        104
  12.2445        123
  12.4302        118
  12.6160         97
  12.8018        114
  12.9875        104
  13.1733         89
  13.3590        103
  13.5448         91
  13.7305         91
  13.9163         81
  14.1020         82
  14.2878         82
  14.4736         82
  14.6593         87
  14.8451         77
  15.0308         80
  15.2166         63
  15.4023         79
  15.5881         86
  15.7738         73
  15.9596         87
  16.1454         87
  16.3311         79
  16.5169         82
  16.7026         83
  16.8884         76
  17.0741         71
  17.2599         65
  17.4457         75
  17.6314         75
  17.8172         69
  18.0029         79
  18.1887         84
  18.3744        100
  18.5602         83
  18.7459         88
  18.9317        102
  19.1175         83
  19.3032         83
  19.4890         78
  19.6747         76
  19.8605         93
  20.0462         89
  20.2320         89
  20.4177         93
  20.6035         98
  20.7893         92
  20.9750        102
  21.1608        128
  21.3465        246
  21.5323        100
  21.7180         96
  21.9038        108
  22.0896         95
  22.2753        105
  22.4611         88
  22.6468        102
  22.8326        113
  23.0183         97
  23.2041         77
  23.3898        107
  23.5756         91
  23.7614        102
  23.9471         85
  24.1329         82
  24.3186        121
  24.5044        105
  24.6901        114
  24.8759        104
  25.0616         89
  25.2474         87
  25.4332         99
  25.6189        115
  25.8047         67
  25.9904        104
  26.1762        108
  26.3619         89
  26.5477         81
  26.7335        114
  26.9192         55
  27.1050        101
  27.2907         83
  27.4765         98
  27.6622        103
  27.8480         75
  28.0337         93
  28.2195         85
  28.4053         92
  28.5910         80
  28.7768         79
  28.9625         87
  29.1483         73
  29.3340         92
  29.5198         75
  29.7055         80
  29.8913         70
  30.0771         93
  30.2628         88
  30.4486        125
  30.6343         84
  30.8201         80
  31.0058         69
  31.1916         87
  31.3774         76
  31.5631         73
  31.7489         60
  31.9346         70
  32.1204         51
  32.3061         62
  32.4919         76
  32.6776         59
  32.8634         51
  33.0492         68
  33.2349         55
  33.4207         56
  33.6064         59
  33.7922         70
  33.9779         47
  34.1637         53
  34.3494         68
  34.5352         56
  34.7210         51
  34.9067         66
  35.0925         54
  35.2782         57
  35.4640         46
  35.6497         41
  35.8355         42
  36.0213         44
  36.2070         44
  36.3928         48
  36.5785         50
  36.7643         34
  36.9500         32
  37.1358         47
  37.3215         62
  37.5073         46
  37.6931         45
  37.8788         47
  38.0646         56
  38.2503         40
  38.4361         49
  38.6218         49
  38.8076         43
  38.9933         41
  39.1791         32
  39.3649         42
  39.5506         35
  39.7364         30
  39.9221         44
  40.1079         38
  40.2936         38
  40.4794         43
  40.6652         45
  40.8509         40
  41.0367         29
  41.2224         45
  41.4082         43
  41.5939         34
  41.7797         40
  41.9654         41
  42.1512         38
  42.3370         26
  42.5227         40
  42.7085         38
  42.8942         26
  43.0800         48
  43.2657         44
  43.4515         48
  43.6372         62
  43.8230         26
  44.0088         25
  44.1945         41
  44.3803         40
  44.5660         36
  44.7518         40
  44.9375         42
  45.1233         40
  45.3091         36
  45.4948         35
  45.6806         28
  45.8663         31
  46.0521         39
  46.2378         31
  46.4236         34
  46.6093         30
  46.7951         33
  46.9809         28
  47.1666         39
  47.3524         30
  47.5381         34
  47.7239         27
  47.9096         30
  48.0954         27
  48.2811         27
  48.4669         34
  48.6527         26
  48.8384         26
  49.0242         40
  49.2099         35
  49.3957         22
  49.5814         30
  49.7672         34
  49.9530         34
  50.1387         36
  50.3245         34
  50.5102         32
  50.6960         32
  50.8817         36
  51.0675         29
  51.2532         34
  51.4390         30
  51.6248         30
  51.8105         29
  51.9963         19
  52.1820         27
  52.3678         36
  52.5535         36
  52.7393         31
  52.9250         27
  53.1108         30
  53.2966         34
  53.4823         23
  53.6681         27
  53.8538         34
  54.0396         35
  54.2253         20
  54.4111         27
  54.5969         30
  54.7826         28
  54.9684         28
  55.1541         25
  55.3399         32
  55.5256         32
  55.7114         34
  55.8971         31
  56.0829         35
  56.2687         27
  56.4544         21
  56.6402         23
  56.8259         24
  57.0117         25
  57.1974         29
  57.3832         24
  57.5689         31
  57.7547         23
  57.9405         27
  58.1262         32
  58.3120         30
  58.4977         28
  58.6835         26
  58.8692         30
  59.0550         26
  59.2408         25
  59.4265         38
  59.6123         23
  59.7980         28
  59.9838         32
  60.0024         17

File: ML_20220718_32_SJD_4_LaB6-2min.uxd
; (content of file Y:\Sam\Apurva-07-20-2022\puck4\ML_20220718_32_SJD_0_LaB6-2min.raw)
_FILEVERSION = 3
_SAMPLE = ML_20220718_32_SJD_0_LaB6-2min
_+SAMPLE =
_SITE = USA
_USER = Administrator
_GONIOMETER_CODE = 20
; Goniometer : D8 theta/2theta, stage : Unknown
_ATTACHMENTS_CODE = 0
_GONIOMETER_RADIUS = 200.5
_FIXED_DIVSLIT = 0.6
_FIXED_SAMPLESLIT = 0
_SOLLER_SLITS = 2
_FIXED_DETSLIT = 9.55
_MONOCHROMATOR = 0
; Incident beam monochromator : None
_SOLLER_SLITS_2 = N
_THIN_FILM = N
_BETA_FILTER = Y
_FIXED_ANTISLIT = 5.89
_ANALYZER_CODE = 0
; Received beam analyzer : None
_DATEMEASURED = "26-Jul-2022 09:08:50"
_WL_UNIT = A
_WL1 = 1.5406
_WL2 = 1.54439
_WL3 = 1.39222
_WLRATIO = 0.5
_ANODE = Cu
_V4_INF_CREATOR = XRDWizard
_V4_INF_CREATOR_VERSION = V2.9.0.22
_V4_INF_WIZARD_VERSION = V2.9.0.22
_V4_INF_WIZARD_ADDINS = V2.9.0.22
_V4_INF_WIZARD_DOCTYPE = XRD
_V4_INF_OSUSER = McQueenLab
_V4_INF_USER = Administrator
_V4_INF_SITE = USA
_V4_INF_SAMPLEID = ML_20220718_32_SJD_0_LaB6-2min

; Data for range 1
_DRIVE = COUPLED
_STEPTIME = 5.64
_STEPSIZE = 0.0185756
_STEPMODE = C
_START = 5
_THETA = 2.5
_2THETA = 5
_KHI = 0
_PHI = 0
_X = 0
_Y = 0
_Z = 0
_DETECTOR = 5
; Detector type : Unknown
_DETECTORSLIT = unkn
_AUX1 = 0
_AUX2 = 0
_AUX3 = 0
_TIMESTARTED = 15
_TEMP_RATE = -1
_TEMP_DELAY = -1
_KV = 40
_MA = 40
_RANGE_WL = 1.5406
_3DPLANE = 0
_V4_ADDITIONALDETECTOR = 257
_V4_PSD2THETA = 3.4187
_V4_PSDCHANNEL1 = 0
_V4_PSDAPERTURE = 12.68
_V4_PSDTYPE = 5
_V4_PSDFIXED = 0
_V4_COUNTERS_MASK = 4096
_V4_DRIVES_MASK = 0
_V4_ENCODERS_MASK = 0
_2THETACOUNTS = 1
; 2THETA  PSD
   5.0000        139
   5.1858        122
   5.3715        100
   5.5573        124
   5.7430        103
   5.9288        109
   6.1145         92
   6.3003        102
   6.4860         93
   6.6718         84
   6.8576         76
   7.0433         86
   7.2291        106
   7.4148         68
   7.6006         70
   7.7863         74
   7.9721        107
   8.1579         91
   8.3436         84
   8.5294        101
   8.7151        101
   8.9009        114
   9.0866        120
   9.2724        106
   9.4581        116
   9.6439        122
   9.8297        120
  10.0154        113
  10.2012        139
  10.3869        134
  10.5727        118
  10.7584        104
  10.9442        122
  11.1299        119
  11.3157        109
  11.5015        123
  11.6872        105
  11.8730        128
  12.0587        106
  12.2445        113
  12.4302        116
  12.6160        108
  12.8018        117
  12.9875        114
  13.1733        107
  13.3590        109
  13.5448         94
  13.7305        104
  13.9163         87
  14.1020         84
  14.2878        103
  14.4736         90
  14.6593         91
  14.8451         67
  15.0308         84
  15.2166         86
  15.4023         77
  15.5881         81
  15.7738         70
  15.9596         77
  16.1454         81
  16.3311         96
  16.5169         82
  16.7026         77
  16.8884         74
  17.0741         89
  17.2599         91
  17.4457         82
  17.6314         91
  17.8172         73
  18.0029         89
  18.1887         83
  18.3744         88
  18.5602         79
  18.7459         90
  18.9317         72
  19.1175         93
  19.3032         96
  19.4890         94
  19.6747         86
  19.8605         81
  20.0462         80
  20.2320        103
  20.4177         89
  20.6035         89
  20.7893        101
  20.9750        112
  21.1608         89
  21.3465        230
  21.5323        101
  21.7180         89
  21.9038        106
  22.0896         89
  22.2753         76
  22.4611        101
  22.6468        106
  22.8326         94
  23.0183        110
  23.2041         98
  23.3898         86
  23.5756        100
  23.7614        124
  23.9471        102
  24.1329         93
  24.3186        114
  24.5044         92
  24.6901        103
  24.8759         97
  25.0616         89
  25.2474        105
  25.4332         98
  25.6189        112
  25.8047         91
  25.9904        112
  26.1762        114
  26.3619         94
  26.5477        112
  26.7335         99
  26.9192         97
  27.1050         86
  27.2907        134
  27.4765         97
  27.6622         91
  27.8480         88
  28.0337         95
  28.2195         83
  28.4053         73
  28.5910         79
  28.7768         78
  28.9625         81
  29.1483         74
  29.3340         77
  29.5198         77
  29.7055         84
  29.8913         77
  30.0771         95
  30.2628         75
  30.4486        129
  30.6343         82
  30.8201         70
  31.0058         85
  31.1916         66
  31.3774         62
  31.5631         75
  31.7489         72
  31.9346         72
  32.1204         58
  32.3061         69
  32.4919         63
  32.6776         62
  32.8634         64
  33.0492         59
  33.2349         49
  33.4207         52
  33.6064         58
  33.7922         67
  33.9779         56
  34.1637         57
  34.3494         53
  34.5352         76
  34.7210         69
  34.9067         60
  35.0925         57
  35.2782         41
  35.4640         50
  35.6497         58
  35.8355         55
  36.0213         47
  36.2070         27
  36.3928         46
  36.5785         50
  36.7643         54
  36.9500         50
  37.1358         38
  37.3215         53
  37.5073         52
  37.6931         47
  37.8788         39
  38.0646         56
  38.2503         40
  38.4361         34
  38.6218         42
  38.8076         42
  38.9933         35
  39.1791         48
  39.3649         37
  39.5506         34
  39.7364         44
  39.9221         49
  40.1079         45
  40.2936         32
  40.4794         38
  40.6652         31
  40.8509         33
  41.0367         38
  41.2224         33
  41.4082         51
  41.5939         34
  41.7797         35
  41.9654         33
  42.1512         38
  42.3370         46
  42.5227         31
  42.7085         36
  42.8942         35
  43.0800         35
  43.2657         45
  43.4515         41
  43.6372         40
  43.8230         29
  44.0088         52
  44.1945         40
  44.3803         35
  44.5660         37
  44.7518         35
  44.9375         29
  45.1233         33
  45.3091         36
  45.4948         39
  45.6806         34
  45.8663         30
  46.0521         40
  46.2378         42
  46.4236         27
  46.6093         27
  46.7951         29
  46.9809         22
  47.1666         44
  47.3524         31
  47.5381         35
  47.7239         39
  47.9096         29
  48.0954         45
  48.2811         34
  48.4669         39
  48.6527         30
  48.8384         27
  49.0242         34
  49.2099         38
  49.3957         30
  49.5814         30
  49.7672         31
  49.9530         22
  50.1387         31
  50.3245         49
  50.5102         27
  50.6960         45
  50.8817         36
  51.0675         26
  51.2532         30
  51.4390         28
  51.6248         31
  51.8105         23
  51.9963         37
  52.1820         25
  52.3678         34
  52.5535         26
  52.7393         30
  52.9250         27
  53.1108         29
  53.2966         29
  53.4823         36
  53.6681         28
  53.8538         28
  54.0396         36
  54.2253         33
  54.4111         27
  54.5969         24
  54.7826         24
  54.9684         30
  55.1541         29
  55.3399         32
  55.5256         34
  55.7114         23
  55.8971         28
  56.0829         21
  56.2687         35
  56.4544         34
  56.6402         22
  56.8259         31
  57.0117         34
  57.1974         27
  57.3832         24
  57.5689         27
  57.7547         35
  57.9405         29
  58.1262         21
  58.3120         33
  58.4977         21
  58.6835         22
  58.8692         30
  59.0550         26
  59.2408         25
  59.4265         39
  59.6123         31
  59.7980         32
  59.9838         24
  60.0024         28

File: ML_20220718_33_SJD_4_LaB6-2min.csv
;,2THETA,
5.0000,131
5.1858,131
5.3715,109
5.5573,124
5.7430,107
5.9288,106
6.1145,107
6.3003,88
6.4860,86
6.6718,89
6.8576,86
7.0433,80
7.2291,69
7.4148,75
7.6006,78
7.7863,77
7.9721,81
8.1579,87
8.3436,96
8.5294,102
8.7151,103
8.9009,99
9.0866,113
9.2724,119
9.4581,96
9.6439,119
9.8297,128
10.0154,104
10.2012,129
10.3869,128
10.5727,133
10.7584,100
10.9442,125
11.1299,124
11.3157,114
11.5015,105
11.6872,125
11.8730,92
12.0587,118
12.2445,119
12.4302,107
12.6160,120
12.8018,101
12.9875,108
13.1733,103
13.3590,97
13.5448,94
13.7305,107
13.9163,84
14.1020,95
14.2878,84
14.4736,80
14.6593,67
14.8451,82
15.0308,72
15.2166,75
15.4023,98
15.5881,87
15.7738,72
15.9596,81
16.1454,89
16.3311,76
16.5169,88
16.7026,86
16.8884,93
17.0741,77
17.2599,72
17.4457,72
17.6314,92
17.8172,76
18.0029,77
18.1887,89
18.3744,68
18.5602,86
18.7459,85
18.9317,87
19.1175,88
19.3032,83
19.4890,86
19.6747,81
19.8605,77
20.0462,80
20.2320,81
20.4177,77
20.6035,105
20.7893,89
20.9750,92
21.1608,121
21.3465,221
21.5323,97
21.7180,108
21.9038,83
22.0896,92
22.2753,78
22.4611,79
22.6468,100
22.8326,106
23.0183,117
23.2041,103
23.3898,96
23.5756,91
23.7614,103
23.9471,82
24.1329,105
24.3186,111
24.5044,113
24.6901,108
24.8759,86
25.0616,82
25.2474,107
25.4332,96
25.6189,84
25.8047,101
25.9904,97
26.1762,109
26.3619,96
26.5477,97
26.7335,89
26.9192,98
27.1050,87
27.2907,108
27.4765,83
27.6622,72
27.8480,75
28.0337,84
28.2195,79
28.4053,85
28.5910,79
28.7768,87
28.9625,93
29.1483,66
29.3340,81
29.5198,89
29.7055,69
29.8913,93
30.0771,90
30.2628,91
30.4486,133
30.6343,83
30.8201,81
31.0058,54
31.1916,69
31.3774,61
31.5631,71
31.7489,67
31.9346,60
32.1204,62
32.3061,63
32.4919,78
32.6776,70
32.8634,56
33.0492,48
33.2349,62
33.4207,53
33.6064,51
33.7922,54
33.9779,48
34.1637,57
34.3494,41
34.5352,43
34.7210,78
34.9067,55
35.0925,63
35.2782,52
35.4640,53
35.6497,50
35.8355,58
36.0213,48
36.2070,45
36.3928,43
36.5785,52
36.7643,48
36.9500,39
37.1358,47
37.3215,50
37.5073,60
37.6931,39
37.8788,45
38.0646,38
38.2503,46
38.4361,47
38.6218,37
38.8076,35
38.9933,48
39.1791,46
39.3649,38
39.5506,36
39.7364,36
39.9221,49
40.1079,44
40.2936,34
40.4794,44
40.6652,37
40.8509,36
41.0367,44
41.2224,44
41.4082,50
41.5939,32
41.7797,27
41.9654,35
42.1512,37
42.3370,40
42.5227,35
42.7085,48
42.8942,46
43.0800,37
43.2657,31
43.4515,40
43.6372,60
43.8230,33
44.0088,32
44.1945,41
44.3803,35
44.5660,32
44.7518,37
44.9375,25
45.1233,37
45.3091,22
45.4948,31
45.6806,30
45.8663,35
46.0521,40
46.2378,36
46.4236,42
46.6093,31
46.7951,42
46.9809,35
47.1666,27
47.3524,31
47.5381,24
47.7239,25
47.9096,37
48.0954,25
48.2811,30
48.4669,37
48.6527,22
48.8384,29
49.0242,31
49.2099,35
49.3957,34
49.5814,33
49.7672,31
49.9530,30
50.1387,34
50.3245,38
50.5102,32
50.6960,27
50.8817,30
51.0675,37
51.2532,29
51.4390,31
51.6248,35
51.8105,32
51.9963,32
52.1820,35
52.3678,28
52.5535,43
52.7393,24
52.9250,22
53.1108,42
53.2966,26
53.4823,28
53.6681,34
53.8538,29
54.0396,31
54.2253,34
54.4111,11
54.5969,34
54.7826,25
54.9684,24
55.1541,20
55.3399,27
55.5256,31
55.7114,25
55.8971,26
56.0829,26
56.2687,34
56.4544,30
56.6402,27
56.8259,37
57.0117,26
57.1974,22
57.3832,26
57.5689,26
57.7547,31
57.9405,31
58.1262,34
58.3120,25
58.4977,30
58.6835,41
58.8692,26
59.0550,25
59.2408,23
59.4265,29
59.6123,31
59.7980,22
59.9838,30
60.0024,35