Folder: xrd_clustering/notebooks/data/xrd_data (part 26)

File: ML_20220720_1_SJD_4_LaB6-2min.uxd
; (content of file Y:\Sam\Apurva-07-20-2022\puck4\ML_20220718_1_SJD_0_LaB6-2min.raw)
_FILEVERSION = 3
_SAMPLE = ML_20220718_1_SJD_0_LaB6-2mi
_+SAMPLE =
_SITE = USA
_USER = Administrator
_GONIOMETER_CODE = 20
; Goniometer : D8 theta/2theta, stage : Unknown
_ATTACHMENTS_CODE = 0
_GONIOMETER_RADIUS = 200.5
_FIXED_DIVSLIT = 0.6
_FIXED_SAMPLESLIT = 0
_SOLLER_SLITS = 2
_FIXED_DETSLIT = 9.55
_MONOCHROMATOR = 0
; Incident beam monochromator : None
_SOLLER_SLITS_2 = N
_THIN_FILM = N
_BETA_FILTER = Y
_FIXED_ANTISLIT = 5.89
_ANALYZER_CODE = 0
; Received beam analyzer : None
_DATEMEASURED = "21-Jul-2022 02:49:06"
_WL_UNIT = A
_WL1 = 1.5406
_WL2 = 1.54439
_WL3 = 1.39222
_WLRATIO = 0.5
_ANODE = Cu
_V4_INF_CREATOR = XRDWizard
_V4_INF_CREATOR_VERSION = V2.9.0.22
_V4_INF_WIZARD_VERSION = V2.9.0.22
_V4_INF_WIZARD_ADDINS = V2.9.0.22
_V4_INF_WIZARD_DOCTYPE = XRD
_V4_INF_OSUSER = McQueenLab
_V4_INF_USER = Administrator
_V4_INF_SITE = USA
_V4_INF_SAMPLEID = ML_20220718_1_SJD_0_LaB6-2mi

; Data for range 1
_DRIVE = COUPLED
_STEPTIME = 5.64
_STEPSIZE = 0.0185756
_STEPMODE = C
_START = 5
_THETA = 2.5
_2THETA = 5
_KHI = 0
_PHI = 0
_X = 0
_Y = 0
_Z = 0
_DETECTOR = 5
; Detector type : Unknown
_DETECTORSLIT = unkn
_AUX1 = 0
_AUX2 = 0
_AUX3 = 0
_TIMESTARTED = 15
_TEMP_RATE = -1
_TEMP_DELAY = -1
_KV = 40
_MA = 40
_RANGE_WL = 1.5406
_3DPLANE = 0
_V4_ADDITIONALDETECTOR = 257
_V4_PSD2THETA = 3.3708
_V4_PSDCHANNEL1 = 0
_V4_PSDAPERTURE = 12.68
_V4_PSDTYPE = 5
_V4_PSDFIXED = 0
_V4_COUNTERS_MASK = 4096
_V4_DRIVES_MASK = 0
_V4_ENCODERS_MASK = 0
_2THETACOUNTS = 1
; 2THETA  PSD
   5.0000        159
   5.1858        121
   5.3715        112
   5.5573        103
   5.7430        113
   5.9288        105
   6.1145         94
   6.3003        100
   6.4860         85
   6.6718         81
   6.8576         73
   7.0433         75
   7.2291         65
   7.4148         72
   7.6006         87
   7.7863         80
   7.9721        108
   8.1579         80
   8.3436         92
   8.5294         91
   8.7151         84
   8.9009         97
   9.0866         79
   9.2724         98
   9.4581         94
   9.6439         95
   9.8297        119
  10.0154        113
  10.2012        138
  10.3869        100
  10.5727         97
  10.7584        104
  10.9442        127
  11.1299        106
  11.3157        112
  11.5015        114
  11.6872        101
  11.8730        107
  12.0587        124
  12.2445         95
  12.4302        108
  12.6160        101
  12.8018        106
  12.9875         77
  13.1733         83
  13.3590         98
  13.5448        101
  13.7305         86
  13.9163         83
  14.1020         77
  14.2878         88
  14.4736         85
  14.6593         75
  14.8451         75
  15.0308         95
  15.2166         72
  15.4023         59
  15.5881         64
  15.7738         92
  15.9596         84
  16.1454         73
  16.3311         92
  16.5169         64
  16.7026         77
  16.8884         64
  17.0741         78
  17.2599         74
  17.4457         83
  17.6314         73
  17.8172         82
  18.0029         77
  18.1887         82
  18.3744         88
  18.5602         85
  18.7459         72
  18.9317        105
  19.1175         83
  19.3032         78
  19.4890         74
  19.6747         81
  19.8605        101
  20.0462         75
  20.2320         82
  20.4177         81
  20.6035         96
  20.7893         97
  20.9750         96
  21.1608        125
  21.3465        262
  21.5323         99
  21.7180         99
  21.9038         98
  22.0896         94
  22.2753         94
  22.4611        102
  22.6468         95
  22.8326         93
  23.0183         87
  23.2041        106
  23.3898         84
  23.5756         95
  23.7614         92
  23.9471        102
  24.1329        111
  24.3186        101
  24.5044         94
  24.6901         97
  24.8759        104
  25.0616        105
  25.2474         89
  25.4332         91
  25.6189         94
  25.8047         92
  25.9904         78
  26.1762         92
  26.3619         84
  26.5477         79
  26.7335         87
  26.9192         87
  27.1050        105
  27.2907         95
  27.4765         87
  27.6622         88
  27.8480         72
  28.0337         93
  28.2195         77
  28.4053         69
  28.5910         89
  28.7768         89
  28.9625         85
  29.1483         96
  29.3340         64
  29.5198         58
  29.7055         77
  29.8913         72
  30.0771         76
  30.2628         88
  30.4486        139
  30.6343         87
  30.8201         72
  31.0058         64
  31.1916         69
  31.3774         55
  31.5631         66
  31.7489         58
  31.9346         76
  32.1204         69
  32.3061         83
  32.4919         61
  32.6776         59
  32.8634         63
  33.0492         63
  33.2349         70
  33.4207         59
  33.6064         49
  33.7922         56
  33.9779         68
  34.1637         64
  34.3494         58
  34.5352         60
  34.7210         77
  34.9067         55
  35.0925         61
  35.2782         47
  35.4640         52
  35.6497         53
  35.8355         44
  36.0213         41
  36.2070         44
  36.3928         37
  36.5785         47
  36.7643         51
  36.9500         38
  37.1358         56
  37.3215         48
  37.5073         59
  37.6931         48
  37.8788         39
  38.0646         46
  38.2503         46
  38.4361         40
  38.6218         35
  38.8076         47
  38.9933         48
  39.1791         32
  39.3649         41
  39.5506         31
  39.7364         37
  39.9221         45
  40.1079         47
  40.2936         43
  40.4794         34
  40.6652         52
  40.8509         40
  41.0367         31
  41.2224         38
  41.4082         48
  41.5939         30
  41.7797         33
  41.9654         25
  42.1512         34
  42.3370         36
  42.5227         36
  42.7085         26
  42.8942         29
  43.0800         31
  43.2657         38
  43.4515         52
  43.6372         48
  43.8230         38
  44.0088         34
  44.1945         35
  44.3803         42
  44.5660         30
  44.7518         44
  44.9375         43
  45.1233         35
  45.3091         32
  45.4948         38
  45.6806         45
  45.8663         42
  46.0521         25
  46.2378         28
  46.4236         41
  46.6093         33
  46.7951         25
  46.9809         27
  47.1666         28
  47.3524         38
  47.5381         33
  47.7239         34
  47.9096         36
  48.0954         32
  48.2811         49
  48.4669         40
  48.6527         30
  48.8384         48
  49.0242         43
  49.2099         30
  49.3957         34
  49.5814         25
  49.7672         39
  49.9530         14
  50.1387         31
  50.3245         35
  50.5102         25
  50.6960         27
  50.8817         24
  51.0675         20
  51.2532         29
  51.4390         28
  51.6248         37
  51.8105         36
  51.9963         27
  52.1820         32
  52.3678         31
  52.5535         26
  52.7393         33
  52.9250         34
  53.1108         18
  53.2966         39
  53.4823         23
  53.6681         27
  53.8538         27
  54.0396         40
  54.2253         32
  54.4111         34
  54.5969         19
  54.7826         24
  54.9684         23
  55.1541         24
  55.3399         33
  55.5256         22
  55.7114         30
  55.8971         23
  56.0829         21
  56.2687         41
  56.4544         27
  56.6402         22
  56.8259         30
  57.0117         22
  57.1974         19
  57.3832         30
  57.5689         32
  57.7547         21
  57.9405         32
  58.1262         38
  58.3120         27
  58.4977         33
  58.6835         33
  58.8692         26
  59.0550         31
  59.2408         17
  59.4265         27
  59.6123         26
  59.7980         24
  59.9838         26
  60.0024         26

File: ML_20220720_1_SJD_4_LaB6-4min.uxd
; (content of file Y:\Sam\Apurva-07-20-2022\puck4\ML_20220718_1_SJD_0_LaB6-4min.raw)
_FILEVERSION = 3
_SAMPLE = ML_20220718_1_SJD_0_LaB6-4mi
_+SAMPLE =
_SITE = USA
_USER = Administrator
_GONIOMETER_CODE = 20
; Goniometer : D8 theta/2theta, stage : Unknown
_ATTACHMENTS_CODE = 0
_GONIOMETER_RADIUS = 200.5
_FIXED_DIVSLIT = 0.6
_FIXED_SAMPLESLIT = 0
_SOLLER_SLITS = 2
_FIXED_DETSLIT = 9.55
_MONOCHROMATOR = 0
; Incident beam monochromator : None
_SOLLER_SLITS_2 = N
_THIN_FILM = N
_BETA_FILTER = Y
_FIXED_ANTISLIT = 5.89
_ANALYZER_CODE = 0
; Received beam analyzer : None
_DATEMEASURED = "21-Jul-2022 02:42:14"
_WL_UNIT = A
_WL1 = 1.5406
_WL2 = 1.54439
_WL3 = 1.39222
_WLRATIO = 0.5
_ANODE = Cu
_V4_INF_CREATOR = XRDWizard
_V4_INF_CREATOR_VERSION = V2.9.0.22
_V4_INF_WIZARD_VERSION = V2.9.0.22
_V4_INF_WIZARD_ADDINS = V2.9.0.22
_V4_INF_WIZARD_DOCTYPE = XRD
_V4_INF_OSUSER = McQueenLab
_V4_INF_USER = Administrator
_V4_INF_SITE = USA
_V4_INF_SAMPLEID = ML_20220718_1_SJD_0_LaB6-4mi

; Data for range 1
_DRIVE = COUPLED
_STEPTIME = 11.28
_STEPSIZE = 0.0185756
_STEPMODE = C
_START = 5
_THETA = 2.5
_2THETA = 5
_KHI = 0
_PHI = 0
_X = 0
_Y = 0
_Z = 0
_DETECTOR = 5
; Detector type : Unknown
_DETECTORSLIT = unkn
_AUX1 = 0
_AUX2 = 0
_AUX3 = 0
_TIMESTARTED = 15
_TEMP_RATE = -1
_TEMP_DELAY = -1
_KV = 40
_MA = 40
_RANGE_WL = 1.5406
_3DPLANE = 0
_V4_ADDITIONALDETECTOR = 257
_V4_PSD2THETA = 3.3878
_V4_PSDCHANNEL1 = 0
_V4_PSDAPERTURE = 12.68
_V4_PSDTYPE = 5
_V4_PSDFIXED = 0
_V4_COUNTERS_MASK = 4096
_V4_DRIVES_MASK = 0
_V4_ENCODERS_MASK = 0
_2THETACOUNTS = 1
; 2THETA  PSD
   5.0000        276
   5.1858        241
   5.3715        217
   5.5573        215
   5.7430        242
   5.9288        178
   6.1145        201
   6.3003        200
   6.4860        155
   6.6718        167
   6.8576        165
   7.0433        173
   7.2291        176
   7.4148        184
   7.6006        195
   7.7863        188
   7.9721        198
   8.1579        175
   8.3436        172
   8.5294        173
   8.7151        214
   8.9009        192
   9.0866        193
   9.2724        206
   9.4581        209
   9.6439        215
   9.8297        234
  10.0154        220
  10.2012        223
  10.3869        247
  10.5727        230
  10.7584        238
  10.9442        229
  11.1299        234
  11.3157        218
  11.5015        258
  11.6872        229
  11.8730        230
  12.0587        227
  12.2445        202
  12.4302        222
  12.6160        190
  12.8018        222
  12.9875        204
  13.1733        198
  13.3590        197
  13.5448        171
  13.7305        182
  13.9163        180
  14.1020        180
  14.2878        168
  14.4736        163
  14.6593        168
  14.8451        156
  15.0308        157
  15.2166        132
  15.4023        166
  15.5881        159
  15.7738        158
  15.9596        155
  16.1454        138
  16.3311        126
  16.5169        140
  16.7026        147
  16.8884        158
  17.0741        157
  17.2599        151
  17.4457        154
  17.6314        159
  17.8172        173
  18.0029        173
  18.1887        180
  18.3744        166
  18.5602        153
  18.7459        178
  18.9317        171
  19.1175        187
  19.3032        176
  19.4890        178
  19.6747        167
  19.8605        169
  20.0462        188
  20.2320        171
  20.4177        175
  20.6035        196
  20.7893        181
  20.9750        186
  21.1608        265
  21.3465        498
  21.5323        170
  21.7180        195
  21.9038        179
  22.0896        218
  22.2753        188
  22.4611        186
  22.6468        200
  22.8326        197
  23.0183        201
  23.2041        197
  23.3898        184
  23.5756        221
  23.7614        201
  23.9471        194
  24.1329        203
  24.3186        239
  24.5044        225
  24.6901        209
  24.8759        206
  25.0616        174
  25.2474        195
  25.4332        189
  25.6189        205
  25.8047        186
  25.9904        185
  26.1762        171
  26.3619        158
  26.5477        177
  26.7335        174
  26.9192        163
  27.1050        215
  27.2907        189
  27.4765        192
  27.6622        184
  27.8480        171
  28.0337        175
  28.2195        158
  28.4053        176
  28.5910        162
  28.7768        163
  28.9625        133
  29.1483        173
  29.3340        158
  29.5198        142
  29.7055        170
  29.8913        140
  30.0771        160
  30.2628        176
  30.4486        252
  30.6343        155
  30.8201        135
  31.0058        145
  31.1916        139
  31.3774        133
  31.5631        154
  31.7489        137
  31.9346        146
  32.1204        120
  32.3061        141
  32.4919        145
  32.6776        131
  32.8634        120
  33.0492        135
  33.2349        113
  33.4207        121
  33.6064        102
  33.7922         98
  33.9779        121
  34.1637        111
  34.3494        121
  34.5352        113
  34.7210        163
  34.9067         98
  35.0925        109
  35.2782         93
  35.4640        104
  35.6497        101
  35.8355        125
  36.0213        116
  36.2070         92
  36.3928         91
  36.5785        112
  36.7643         84
  36.9500        102
  37.1358         98
  37.3215         81
  37.5073        136
  37.6931        101
  37.8788         78
  38.0646         83
  38.2503         84
  38.4361         85
  38.6218         79
  38.8076         86
  38.9933         78
  39.1791        103
  39.3649         79
  39.5506         79
  39.7364         64
  39.9221         66
  40.1079         79
  40.2936         83
  40.4794         71
  40.6652         77
  40.8509         71
  41.0367         72
  41.2224         86
  41.4082         76
  41.5939         71
  41.7797         61
  41.9654         71
  42.1512         81
  42.3370         87
  42.5227         87
  42.7085         59
  42.8942         78
  43.0800         76
  43.2657         91
  43.4515         96
  43.6372         94
  43.8230         62
  44.0088         63
  44.1945         74
  44.3803         76
  44.5660         85
  44.7518         79
  44.9375         80
  45.1233         64
  45.3091         82
  45.4948         65
  45.6806         79
  45.8663         70
  46.0521         73
  46.2378         66
  46.4236         71
  46.6093         68
  46.7951         51
  46.9809         68
  47.1666         40
  47.3524         61
  47.5381         76
  47.7239         64
  47.9096         68
  48.0954         77
  48.2811         53
  48.4669         49
  48.6527         66
  48.8384         67
  49.0242         80
  49.2099         73
  49.3957         53
  49.5814         69
  49.7672         71
  49.9530         65
  50.1387         61
  50.3245         64
  50.5102         53
  50.6960         53
  50.8817         53
  51.0675         66
  51.2532         63
  51.4390         71
  51.6248         71
  51.8105         77
  51.9963         63
  52.1820         53
  52.3678         54
  52.5535         70
  52.7393         63
  52.9250         42
  53.1108         55
  53.2966         54
  53.4823         57
  53.6681         61
  53.8538         61
  54.0396         58
  54.2253         59
  54.4111         61
  54.5969         64
  54.7826         60
  54.9684         59
  55.1541         53
  55.3399         47
  55.5256         64
  55.7114         65
  55.8971         63
  56.0829         75
  56.2687         59
  56.4544         64
  56.6402         57
  56.8259         38
  57.0117         55
  57.1974         57
  57.3832         58
  57.5689         55
  57.7547         41
  57.9405         59
  58.1262         54
  58.3120         50
  58.4977         58
  58.6835         40
  58.8692         64
  59.0550         68
  59.2408         49
  59.4265         77
  59.6123         54
  59.7980         58
  59.9838         42
  60.0024         43

File: ML_20220720_2_SJD_4_LaB6-1min.uxd
; (content of file Y:\Sam\Apurva-07-20-2022\puck4\ML_20220718_2_SJD_0_LaB6-1min.raw)
_FILEVERSION = 3
_SAMPLE = ML_20220718_2_SJD_0_LaB6-1mi
_+SAMPLE =
_SITE = USA
_USER = Administrator
_GONIOMETER_CODE = 20
; Goniometer : D8 theta/2theta, stage : Unknown
_ATTACHMENTS_CODE = 0
_GONIOMETER_RADIUS = 200.5
_FIXED_DIVSLIT = 0.6
_FIXED_SAMPLESLIT = 0
_SOLLER_SLITS = 2
_FIXED_DETSLIT = 9.55
_MONOCHROMATOR = 0
; Incident beam monochromator : None
_SOLLER_SLITS_2 = N
_THIN_FILM = N
_BETA_FILTER = Y
_FIXED_ANTISLIT = 5.89
_ANALYZER_CODE = 0
; Received beam analyzer : None
_DATEMEASURED = "21-Jul-2022 03:02:26"
_WL_UNIT = A
_WL1 = 1.5406
_WL2 = 1.54439
_WL3 = 1.39222
_WLRATIO = 0.5
_ANODE = Cu
_V4_INF_CREATOR = XRDWizard
_V4_INF_CREATOR_VERSION = V2.9.0.22
_V4_INF_WIZARD_VERSION = V2.9.0.22
_V4_INF_WIZARD_ADDINS = V2.9.0.22
_V4_INF_WIZARD_DOCTYPE = XRD
_V4_INF_OSUSER = McQueenLab
_V4_INF_USER = Administrator
_V4_INF_SITE = USA
_V4_INF_SAMPLEID = ML_20220718_2_SJD_0_LaB6-1mi

; Data for range 1
_DRIVE = COUPLED
_STEPTIME = 4.23
_STEPSIZE = 0.0185756
_STEPMODE = C
_START = 5
_THETA = 2.5
_2THETA = 5
_KHI = 0
_PHI = 0
_X = 0
_Y = 0
_Z = 0
_DETECTOR = 5
; Detector type : Unknown
_DETECTORSLIT = unkn
_AUX1 = 0
_AUX2 = 0
_AUX3 = 0
_TIMESTARTED = 15
_TEMP_RATE = -1
_TEMP_DELAY = -1
_KV = 40
_MA = 40
_RANGE_WL = 1.5406
_3DPLANE = 0
_V4_ADDITIONALDETECTOR = 257
_V4_PSD2THETA = 3.4337
_V4_PSDCHANNEL1 = 0
_V4_PSDAPERTURE = 12.68
_V4_PSDTYPE = 5
_V4_PSDFIXED = 0
_V4_COUNTERS_MASK = 4096
_V4_DRIVES_MASK = 0
_V4_ENCODERS_MASK = 0
_2THETACOUNTS = 1
; 2THETA  PSD
   5.0000        114
   5.1858         84
   5.3715         75
   5.5573         78
   5.7430         74
   5.9288         80
   6.1145         63
   6.3003         76
   6.4860         76
   6.6718         54
   6.8576         69
   7.0433         57
   7.2291         62
   7.4148         63
   7.6006         70
   7.7863         50
   7.9721         65
   8.1579         64
   8.3436         59
   8.5294         79
   8.7151         59
   8.9009         71
   9.0866         75
   9.2724         75
   9.4581         76
   9.6439         66
   9.8297         84
  10.0154         87
  10.2012         72
  10.3869         85
  10.5727         95
  10.7584         89
  10.9442         92
  11.1299         86
  11.3157         89
  11.5015         79
  11.6872         72
  11.8730         90
  12.0587         73
  12.2445         84
  12.4302         85
  12.6160         87
  12.8018         77
  12.9875         76
  13.1733         54
  13.3590         64
  13.5448         78
  13.7305         79
  13.9163         85
  14.1020         70
  14.2878         68
  14.4736         70
  14.6593         55
  14.8451         65
  15.0308         66
  15.2166         68
  15.4023         63
  15.5881         61
  15.7738         71
  15.9596         52
  16.1454         67
  16.3311         63
  16.5169         40
  16.7026         51
  16.8884         56
  17.0741         67
  17.2599         61
  17.4457         64
  17.6314         46
  17.8172         66
  18.0029         51
  18.1887         60
  18.3744         57
  18.5602         53
  18.7459         71
  18.9317         63
  19.1175         61
  19.3032         61
  19.4890         73
  19.6747         76
  19.8605         60
  20.0462         64
  20.2320         49
  20.4177         65
  20.6035         78
  20.7893         60
  20.9750         59
  21.1608         94
  21.3465        212
  21.5323         74
  21.7180         67
  21.9038         65
  22.0896         60
  22.2753         70
  22.4611         62
  22.6468         62
  22.8326         73
  23.0183         76
  23.2041         61
  23.3898         55
  23.5756         76
  23.7614         65
  23.9471         62
  24.1329         69
  24.3186         97
  24.5044         76
  24.6901         58
  24.8759         79
  25.0616         71
  25.2474         63
  25.4332         58
  25.6189         87
  25.8047         64
  25.9904         64
  26.1762         80
  26.3619         75
  26.5477         81
  26.7335         63
  26.9192         73
  27.1050         71
  27.2907         87
  27.4765         59
  27.6622         68
  27.8480         70
  28.0337         63
  28.2195         58
  28.4053         77
  28.5910         66
  28.7768         51
  28.9625         57
  29.1483         49
  29.3340         66
  29.5198         49
  29.7055         58
  29.8913         55
  30.0771         54
  30.2628         64
  30.4486         91
  30.6343         63
  30.8201         42
  31.0058         44
  31.1916         57
  31.3774         45
  31.5631         55
  31.7489         39
  31.9346         49
  32.1204         47
  32.3061         36
  32.4919         46
  32.6776         38
  32.8634         44
  33.0492         37
  33.2349         44
  33.4207         37
  33.6064         36
  33.7922         43
  33.9779         53
  34.1637         44
  34.3494         43
  34.5352         47
  34.7210         55
  34.9067         45
  35.0925         37
  35.2782         31
  35.4640         34
  35.6497         38
  35.8355         41
  36.0213         35
  36.2070         35
  36.3928         31
  36.5785         36
  36.7643         29
  36.9500         40
  37.1358         40
  37.3215         32
  37.5073         39
  37.6931         23
  37.8788         39
  38.0646         29
  38.2503         29
  38.4361         35
  38.6218         30
  38.8076         31
  38.9933         29
  39.1791         27
  39.3649         28
  39.5506         27
  39.7364         32
  39.9221         33
  40.1079         32
  40.2936         29
  40.4794         40
  40.6652         52
  40.8509         23
  41.0367         35
  41.2224         16
  41.4082         31
  41.5939         25
  41.7797         32
  41.9654         34
  42.1512         26
  42.3370         23
  42.5227         38
  42.7085         21
  42.8942         30
  43.0800         19
  43.2657         28
  43.4515         40
  43.6372         36
  43.8230         19
  44.0088         28
  44.1945         22
  44.3803         39
  44.5660         30
  44.7518         29
  44.9375         29
  45.1233         29
  45.3091         25
  45.4948         24
  45.6806         19
  45.8663         27
  46.0521         25
  46.2378         26
  46.4236         19
  46.6093         21
  46.7951         24
  46.9809         30
  47.1666         27
  47.3524         26
  47.5381         25
  47.7239         19
  47.9096         23
  48.0954         26
  48.2811         19
  48.4669         21
  48.6527         27
  48.8384         20
  49.0242         27
  49.2099         16
  49.3957         29
  49.5814         26
  49.7672         24
  49.9530         22
  50.1387         22
  50.3245         26
  50.5102         20
  50.6960         16
  50.8817         16
  51.0675         26
  51.2532         21
  51.4390         24
  51.6248         27
  51.8105         30
  51.9963         22
  52.1820         16
  52.3678         15
  52.5535         14
  52.7393         22
  52.9250         21
  53.1108         16
  53.2966         17
  53.4823         21
  53.6681         19
  53.8538         21
  54.0396         24
  54.2253         25
  54.4111         16
  54.5969         21
  54.7826         22
  54.9684         19
  55.1541         18
  55.3399         31
  55.5256         21
  55.7114         25
  55.8971         25
  56.0829         23
  56.2687         24
  56.4544         21
  56.6402         21
  56.8259         21
  57.0117         18
  57.1974         16
  57.3832         18
  57.5689         21
  57.7547         30
  57.9405         10
  58.1262         21
  58.3120         27
  58.4977         19
  58.6835         15
  58.8692         15
  59.0550         25
  59.2408         22
  59.4265         15
  59.6123         23
  59.7980         25
  59.9838         17
  60.0024         18