Folder: xrd_clustering/notebooks/data/xrd_data (part 13)

File: ML_20220718_44_SJD_4_LaB6-4min.csv
;,2THETA,
5.0000,262
5.1858,255
5.3715,232
5.5573,251
5.7430,209
5.9288,210
6.1145,199
6.3003,198
6.4860,173
6.6718,173
6.8576,166
7.0433,153
7.2291,154
7.4148,167
7.6006,153
7.7863,164
7.9721,204
8.1579,193
8.3436,214
8.5294,198
8.7151,191
8.9009,252
9.0866,184
9.2724,224
9.4581,230
9.6439,211
9.8297,219
10.0154,198
10.2012,266
10.3869,242
10.5727,246
10.7584,230
10.9442,238
11.1299,214
11.3157,236
11.5015,246
11.6872,248
11.8730,221
12.0587,230
12.2445,219
12.4302,209
12.6160,209
12.8018,209
12.9875,206
13.1733,185
13.3590,196
13.5448,201
13.7305,182
13.9163,187
14.1020,195
14.2878,171
14.4736,164
14.6593,164
14.8451,168
15.0308,167
15.2166,179
15.4023,159
15.5881,178
15.7738,151
15.9596,177
16.1454,160
16.3311,174
16.5169,155
16.7026,150
16.8884,161
17.0741,177
17.2599,149
17.4457,167
17.6314,151
17.8172,163
18.0029,154
18.1887,164
18.3744,156
18.5602,166
18.7459,141
18.9317,160
19.1175,155
19.3032,180
19.4890,156
19.6747,173
19.8605,174
20.0462,188
20.2320,179
20.4177,186
20.6035,188
20.7893,193
20.9750,183
21.1608,222
21.3465,508
21.5323,188
21.7180,187
21.9038,211
22.0896,207
22.2753,191
22.4611,212
22.6468,189
22.8326,212
23.0183,191
23.2041,190
23.3898,180
23.5756,208
23.7614,190
23.9471,215
24.1329,193
24.3186,212
24.5044,206
24.6901,182
24.8759,190
25.0616,200
25.2474,192
25.4332,180
25.6189,192
25.8047,188
25.9904,185
26.1762,202
26.3619,170
26.5477,185
26.7335,191
26.9192,175
27.1050,213
27.2907,240
27.4765,201
27.6622,157
27.8480,176
28.0337,202
28.2195,174
28.4053,182
28.5910,172
28.7768,160
28.9625,158
29.1483,171
29.3340,164
29.5198,165
29.7055,165
29.8913,178
30.0771,147
30.2628,164
30.4486,245
30.6343,165
30.8201,155
31.0058,141
31.1916,126
31.3774,157
31.5631,124
31.7489,151
31.9346,128
32.1204,121
32.3061,111
32.4919,141
32.6776,120
32.8634,123
33.0492,119
33.2349,121
33.4207,108
33.6064,123
33.7922,115
33.9779,109
34.1637,107
34.3494,108
34.5352,127
34.7210,136
34.9067,128
35.0925,116
35.2782,95
35.4640,86
35.6497,114
35.8355,103
36.0213,102
36.2070,95
36.3928,103
36.5785,102
36.7643,96
36.9500,88
37.1358,87
37.3215,83
37.5073,112
37.6931,96
37.8788,78
38.0646,98
38.2503,86
38.4361,83
38.6218,66
38.8076,104
38.9933,69
39.1791,73
39.3649,81
39.5506,78
39.7364,95
39.9221,75
40.1079,69
40.2936,64
40.4794,75
40.6652,69
40.8509,63
41.0367,96
41.2224,83
41.4082,74
41.5939,63
41.7797,69
41.9654,66
42.1512,67
42.3370,61
42.5227,76
42.7085,66
42.8942,71
43.0800,90
43.2657,98
43.4515,81
43.6372,101
43.8230,65
44.0088,65
44.1945,83
44.3803,89
44.5660,80
44.7518,72
44.9375,74
45.1233,78
45.3091,58
45.4948,57
45.6806,68
45.8663,69
46.0521,58
46.2378,64
46.4236,56
46.6093,61
46.7951,68
46.9809,59
47.1666,72
47.3524,74
47.5381,45
47.7239,66
47.9096,61
48.0954,72
48.2811,68
48.4669,74
48.6527,66
48.8384,69
49.0242,81
49.2099,58
49.3957,77
49.5814,53
49.7672,59
49.9530,61
50.1387,51
50.3245,73
50.5102,50
50.6960,68
50.8817,55
51.0675,60
51.2532,63
51.4390,79
51.6248,61
51.8105,71
51.9963,68
52.1820,60
52.3678,59
52.5535,49
52.7393,67
52.9250,77
53.1108,50
53.2966,52
53.4823,58
53.6681,60
53.8538,66
54.0396,66
54.2253,58
54.4111,68
54.5969,52
54.7826,54
54.9684,49
55.1541,52
55.3399,41
55.5256,43
55.7114,62
55.8971,66
56.0829,67
56.2687,66
56.4544,64
56.6402,71
56.8259,52
57.0117,58
57.1974,57
57.3832,64
57.5689,58
57.7547,71
57.9405,61
58.1262,51
58.3120,56
58.4977,50
58.6835,56
58.8692,55
59.0550,63
59.2408,50
59.4265,45
59.6123,46
59.7980,56
59.9838,53
60.0024,51

File: ML_20220718_45_SJD_4_LaB6-1min.csv
;,2THETA,
5.0000,109
5.1858,90
5.3715,88
5.5573,77
5.7430,82
5.9288,69
6.1145,64
6.3003,59
6.4860,60
6.6718,63
6.8576,62
7.0433,68
7.2291,57
7.4148,69
7.6006,57
7.7863,70
7.9721,68
8.1579,60
8.3436,70
8.5294,80
8.7151,78
8.9009,61
9.0866,83
9.2724,65
9.4581,87
9.6439,71
9.8297,105
10.0154,88
10.2012,98
10.3869,72
10.5727,82
10.7584,92
10.9442,99
11.1299,92
11.3157,82
11.5015,101
11.6872,81
11.8730,98
12.0587,67
12.2445,94
12.4302,82
12.6160,77
12.8018,83
12.9875,83
13.1733,78
13.3590,77
13.5448,64
13.7305,66
13.9163,82
14.1020,75
14.2878,65
14.4736,53
14.6593,73
14.8451,72
15.0308,72
15.2166,58
15.4023,58
15.5881,65
15.7738,39
15.9596,63
16.1454,54
16.3311,50
16.5169,56
16.7026,65
16.8884,57
17.0741,48
17.2599,46
17.4457,82
17.6314,62
17.8172,56
18.0029,65
18.1887,60
18.3744,62
18.5602,57
18.7459,59
18.9317,60
19.1175,75
19.3032,56
19.4890,63
19.6747,67
19.8605,62
20.0462,62
20.2320,62
20.4177,62
20.6035,62
20.7893,72
20.9750,63
21.1608,83
21.3465,187
21.5323,82
21.7180,76
21.9038,65
22.0896,68
22.2753,79
22.4611,76
22.6468,79
22.8326,83
23.0183,78
23.2041,69
23.3898,88
23.5756,68
23.7614,70
23.9471,72
24.1329,70
24.3186,94
24.5044,72
24.6901,73
24.8759,74
25.0616,69
25.2474,76
25.4332,68
25.6189,71
25.8047,71
25.9904,56
26.1762,76
26.3619,84
26.5477,75
26.7335,59
26.9192,63
27.1050,82
27.2907,75
27.4765,58
27.6622,71
27.8480,58
28.0337,63
28.2195,66
28.4053,54
28.5910,58
28.7768,68
28.9625,57
29.1483,58
29.3340,60
29.5198,49
29.7055,48
29.8913,61
30.0771,63
30.2628,66
30.4486,82
30.6343,52
30.8201,59
31.0058,63
31.1916,46
31.3774,53
31.5631,44
31.7489,50
31.9346,42
32.1204,61
32.3061,47
32.4919,58
32.6776,49
32.8634,41
33.0492,55
33.2349,36
33.4207,33
33.6064,54
33.7922,43
33.9779,52
34.1637,41
34.3494,38
34.5352,45
34.7210,58
34.9067,54
35.0925,40
35.2782,37
35.4640,33
35.6497,31
35.8355,29
36.0213,43
36.2070,45
36.3928,37
36.5785,33
36.7643,32
36.9500,30
37.1358,40
37.3215,42
37.5073,40
37.6931,33
37.8788,36
38.0646,26
38.2503,28
38.4361,28
38.6218,38
38.8076,31
38.9933,30
39.1791,24
39.3649,33
39.5506,33
39.7364,24
39.9221,39
40.1079,38
40.2936,28
40.4794,28
40.6652,37
40.8509,33
41.0367,25
41.2224,24
41.4082,31
41.5939,25
41.7797,21
41.9654,29
42.1512,36
42.3370,23
42.5227,28
42.7085,25
42.8942,27
43.0800,28
43.2657,31
43.4515,35
43.6372,31
43.8230,29
44.0088,27
44.1945,28
44.3803,40
44.5660,20
44.7518,26
44.9375,25
45.1233,25
45.3091,37
45.4948,21
45.6806,23
45.8663,32
46.0521,28
46.2378,29
46.4236,20
46.6093,18
46.7951,34
46.9809,18
47.1666,29
47.3524,23
47.5381,23
47.7239,29
47.9096,19
48.0954,24
48.2811,20
48.4669,17
48.6527,25
48.8384,23
49.0242,29
49.2099,26
49.3957,16
49.5814,17
49.7672,30
49.9530,26
50.1387,29
50.3245,24
50.5102,20
50.6960,22
50.8817,19
51.0675,21
51.2532,24
51.4390,29
51.6248,20
51.8105,28
51.9963,17
52.1820,21
52.3678,26
52.5535,24
52.7393,19
52.9250,21
53.1108,33
53.2966,27
53.4823,23
53.6681,20
53.8538,21
54.0396,27
54.2253,19
54.4111,28
54.5969,17
54.7826,21
54.9684,19
55.1541,17
55.3399,21
55.5256,26
55.7114,22
55.8971,16
56.0829,22
56.2687,26
56.4544,18
56.6402,20
56.8259,17
57.0117,15
57.1974,15
57.3832,25
57.5689,17
57.7547,13
57.9405,26
58.1262,15
58.3120,20
58.4977,17
58.6835,17
58.8692,24
59.0550,28
59.2408,12
59.4265,10
59.6123,19
59.7980,18
59.9838,19
60.0024,20

File: ML_20220718_45_SJD_4_LaB6-2min.uxd
; (content of file Y:\Sam\Apurva-07-20-2022\puck4\ML_20220718_45_SJD_4_LaB6-2min.raw)
_FILEVERSION = 3
_SAMPLE = ML_20220718_45_SJD_4_LaB6-2min
_+SAMPLE =
_SITE = USA
_USER = Administrator
_GONIOMETER_CODE = 20
; Goniometer : D8 theta/2theta, stage : Unknown
_ATTACHMENTS_CODE = 0
_GONIOMETER_RADIUS = 200.5
_FIXED_DIVSLIT = 0.6
_FIXED_SAMPLESLIT = 0
_SOLLER_SLITS = 2
_FIXED_DETSLIT = 9.55
_MONOCHROMATOR = 0
; Incident beam monochromator : None
_SOLLER_SLITS_2 = N
_THIN_FILM = N
_BETA_FILTER = Y
_FIXED_ANTISLIT = 5.89
_ANALYZER_CODE = 0
; Received beam analyzer : None
_DATEMEASURED = "26-Jul-2022 12:15:41"
_WL_UNIT = A
_WL1 = 1.5406
_WL2 = 1.54439
_WL3 = 1.39222
_WLRATIO = 0.5
_ANODE = Cu
_V4_INF_CREATOR = XRDWizard
_V4_INF_CREATOR_VERSION = V2.9.0.22
_V4_INF_WIZARD_VERSION = V2.9.0.22
_V4_INF_WIZARD_ADDINS = V2.9.0.22
_V4_INF_WIZARD_DOCTYPE = XRD
_V4_INF_OSUSER = McQueenLab
_V4_INF_USER = Administrator
_V4_INF_SITE = USA
_V4_INF_SAMPLEID = ML_20220718_45_SJD_4_LaB6-2min

; Data for range 1
_DRIVE = COUPLED
_STEPTIME = 5.64
_STEPSIZE = 0.0185756
_STEPMODE = C
_START = 5
_THETA = 2.5
_2THETA = 5
_KHI = 0
_PHI = 0
_X = 0
_Y = 0
_Z = 0
_DETECTOR = 5
; Detector type : Unknown
_DETECTORSLIT = unkn
_AUX1 = 0
_AUX2 = 0
_AUX3 = 0
_TIMESTARTED = 15
_TEMP_RATE = -1
_TEMP_DELAY = -1
_KV = 40
_MA = 40
_RANGE_WL = 1.5406
_3DPLANE = 0
_V4_ADDITIONALDETECTOR = 257
_V4_PSD2THETA = 3.4135
_V4_PSDCHANNEL1 = 0
_V4_PSDAPERTURE = 12.68
_V4_PSDTYPE = 5
_V4_PSDFIXED = 0
_V4_COUNTERS_MASK = 4096
_V4_DRIVES_MASK = 0
_V4_ENCODERS_MASK = 0
_2THETACOUNTS = 1
; 2THETA  PSD
   5.0000        133
   5.1858        135
   5.3715        118
   5.5573         91
   5.7430        107
   5.9288         98
   6.1145        110
   6.3003         92
   6.4860         80
   6.6718         84
   6.8576         78
   7.0433         88
   7.2291         87
   7.4148         58
   7.6006         66
   7.7863         82
   7.9721         90
   8.1579        106
   8.3436         92
   8.5294        110
   8.7151        107
   8.9009         98
   9.0866         92
   9.2724        105
   9.4581        149
   9.6439        105
   9.8297        123
  10.0154        121
  10.2012        109
  10.3869        117
  10.5727        120
  10.7584        137
  10.9442        134
  11.1299        126
  11.3157        124
  11.5015        123
  11.6872        126
  11.8730        111
  12.0587         96
  12.2445        101
  12.4302        115
  12.6160        107
  12.8018        111
  12.9875        104
  13.1733        106
  13.3590         92
  13.5448         93
  13.7305        102
  13.9163         81
  14.1020         86
  14.2878         84
  14.4736         89
  14.6593         86
  14.8451         79
  15.0308         84
  15.2166         86
  15.4023         66
  15.5881         89
  15.7738         73
  15.9596         80
  16.1454         61
  16.3311         75
  16.5169         95
  16.7026         78
  16.8884         80
  17.0741         62
  17.2599         94
  17.4457         60
  17.6314         74
  17.8172         70
  18.0029         79
  18.1887         90
  18.3744         77
  18.5602         84
  18.7459         90
  18.9317         70
  19.1175         69
  19.3032         85
  19.4890         75
  19.6747         80
  19.8605         86
  20.0462        105
  20.2320         86
  20.4177        102
  20.6035         84
  20.7893         94
  20.9750         97
  21.1608        103
  21.3465        261
  21.5323        105
  21.7180         92
  21.9038         84
  22.0896         87
  22.2753         95
  22.4611        112
  22.6468         83
  22.8326         85
  23.0183        101
  23.2041        110
  23.3898         88
  23.5756         93
  23.7614         80
  23.9471        117
  24.1329        110
  24.3186        104
  24.5044         99
  24.6901        100
  24.8759        107
  25.0616        102
  25.2474         92
  25.4332        111
  25.6189         97
  25.8047         94
  25.9904        104
  26.1762         93
  26.3619        100
  26.5477         86
  26.7335        106
  26.9192         94
  27.1050         91
  27.2907        111
  27.4765         85
  27.6622         80
  27.8480         76
  28.0337         74
  28.2195         76
  28.4053         73
  28.5910         78
  28.7768         76
  28.9625         87
  29.1483         74
  29.3340         86
  29.5198         81
  29.7055         91
  29.8913         80
  30.0771         78
  30.2628         85
  30.4486        130
  30.6343         84
  30.8201         75
  31.0058         66
  31.1916         64
  31.3774         63
  31.5631         66
  31.7489         67
  31.9346         53
  32.1204         77
  32.3061         65
  32.4919         70
  32.6776         76
  32.8634         59
  33.0492         55
  33.2349         62
  33.4207         63
  33.6064         57
  33.7922         54
  33.9779         47
  34.1637         36
  34.3494         55
  34.5352         49
  34.7210         71
  34.9067         59
  35.0925         62
  35.2782         56
  35.4640         46
  35.6497         51
  35.8355         47
  36.0213         44
  36.2070         59
  36.3928         34
  36.5785         46
  36.7643         54
  36.9500         55
  37.1358         45
  37.3215         41
  37.5073         58
  37.6931         31
  37.8788         46
  38.0646         52
  38.2503         48
  38.4361         39
  38.6218         34
  38.8076         46
  38.9933         51
  39.1791         42
  39.3649         43
  39.5506         36
  39.7364         52
  39.9221         35
  40.1079         34
  40.2936         48
  40.4794         31
  40.6652         42
  40.8509         31
  41.0367         41
  41.2224         34
  41.4082         38
  41.5939         39
  41.7797         35
  41.9654         42
  42.1512         44
  42.3370         33
  42.5227         37
  42.7085         45
  42.8942         41
  43.0800         38
  43.2657         30
  43.4515         40
  43.6372         46
  43.8230         34
  44.0088         43
  44.1945         33
  44.3803         37
  44.5660         46
  44.7518         38
  44.9375         35
  45.1233         23
  45.3091         37
  45.4948         41
  45.6806         32
  45.8663         33
  46.0521         42
  46.2378         37
  46.4236         34
  46.6093         28
  46.7951         22
  46.9809         30
  47.1666         30
  47.3524         38
  47.5381         33
  47.7239         36
  47.9096         39
  48.0954         38
  48.2811         28
  48.4669         30
  48.6527         42
  48.8384         37
  49.0242         44
  49.2099         36
  49.3957         24
  49.5814         25
  49.7672         33
  49.9530         28
  50.1387         36
  50.3245         28
  50.5102         29
  50.6960         28
  50.8817         26
  51.0675         32
  51.2532         22
  51.4390         35
  51.6248         38
  51.8105         42
  51.9963         30
  52.1820         28
  52.3678         29
  52.5535         20
  52.7393         38
  52.9250         36
  53.1108         30
  53.2966         19
  53.4823         34
  53.6681         26
  53.8538         24
  54.0396         23
  54.2253         36
  54.4111         24
  54.5969         28
  54.7826         29
  54.9684         27
  55.1541         28
  55.3399         31
  55.5256         35
  55.7114         21
  55.8971         29
  56.0829         29
  56.2687         26
  56.4544         24
  56.6402         41
  56.8259         31
  57.0117         33
  57.1974         27
  57.3832         34
  57.5689         26
  57.7547         26
  57.9405         20
  58.1262         27
  58.3120         17
  58.4977         23
  58.6835         26
  58.8692         28
  59.0550         22
  59.2408         28
  59.4265         18
  59.6123         23
  59.7980         31
  59.9838         31
  60.0024         40

File: ML_20220718_45_SJD_4_LaB6-4min.csv
;,2THETA,
5.0000,252
5.1858,231
5.3715,230
5.5573,227
5.7430,224
5.9288,192
6.1145,186
6.3003,163
6.4860,177
6.6718,192
6.8576,192
7.0433,181
7.2291,148
7.4148,149
7.6006,179
7.7863,175
7.9721,184
8.1579,207
8.3436,170
8.5294,194
8.7151,217
8.9009,194
9.0866,240
9.2724,203
9.4581,241
9.6439,224
9.8297,248
10.0154,236
10.2012,235
10.3869,231
10.5727,246
10.7584,242
10.9442,194
11.1299,239
11.3157,248
11.5015,250
11.6872,250
11.8730,241
12.0587,250
12.2445,221
12.4302,234
12.6160,199
12.8018,189
12.9875,189
13.1733,174
13.3590,205
13.5448,200
13.7305,174
13.9163,182
14.1020,181
14.2878,159
14.4736,158
14.6593,186
14.8451,142
15.0308,180
15.2166,164
15.4023,165
15.5881,162
15.7738,175
15.9596,136
16.1454,157
16.3311,154
16.5169,159
16.7026,162
16.8884,148
17.0741,171
17.2599,168
17.4457,160
17.6314,183
17.8172,184
18.0029,191
18.1887,175
18.3744,174
18.5602,155
18.7459,145
18.9317,168
19.1175,181
19.3032,169
19.4890,141
19.6747,171
19.8605,188
20.0462,181
20.2320,176
20.4177,177
20.6035,190
20.7893,180
20.9750,187
21.1608,222
21.3465,459
21.5323,195
21.7180,179
21.9038,196
22.0896,168
22.2753,195
22.4611,187
22.6468,188
22.8326,207
23.0183,201
23.2041,211
23.3898,179
23.5756,227
23.7614,202
23.9471,211
24.1329,200
24.3186,207
24.5044,211
24.6901,190
24.8759,208
25.0616,186
25.2474,201
25.4332,174
25.6189,192
25.8047,189
25.9904,196
26.1762,228
26.3619,174
26.5477,181
26.7335,201
26.9192,216
27.1050,183
27.2907,194
27.4765,187
27.6622,191
27.8480,178
28.0337,175
28.2195,157
28.4053,167
28.5910,160
28.7768,153
28.9625,171
29.1483,135
29.3340,162
29.5198,159
29.7055,160
29.8913,147
30.0771,159
30.2628,158
30.4486,246
30.6343,141
30.8201,151
31.0058,143
31.1916,150
31.3774,139
31.5631,127
31.7489,108
31.9346,144
32.1204,124
32.3061,133
32.4919,148
32.6776,132
32.8634,134
33.0492,124
33.2349,116
33.4207,128
33.6064,129
33.7922,113
33.9779,125
34.1637,123
34.3494,102
34.5352,111
34.7210,156
34.9067,128
35.0925,97
35.2782,103
35.4640,130
35.6497,102
35.8355,99
36.0213,87
36.2070,87
36.3928,91
36.5785,83
36.7643,90
36.9500,82
37.1358,101
37.3215,96
37.5073,122
37.6931,105
37.8788,74
38.0646,84
38.2503,90
38.4361,81
38.6218,78
38.8076,71
38.9933,94
39.1791,82
39.3649,86
39.5506,86
39.7364,80
39.9221,75
40.1079,73
40.2936,80
40.4794,83
40.6652,98
40.8509,82
41.0367,81
41.2224,80
41.4082,70
41.5939,75
41.7797,81
41.9654,80
42.1512,81
42.3370,77
42.5227,68
42.7085,80
42.8942,77
43.0800,71
43.2657,91
43.4515,99
43.6372,103
43.8230,64
44.0088,78
44.1945,75
44.3803,70
44.5660,97
44.7518,66
44.9375,83
45.1233,65
45.3091,70
45.4948,64
45.6806,67
45.8663,68
46.0521,70
46.2378,69
46.4236,58
46.6093,73
46.7951,49
46.9809,61
47.1666,76
47.3524,68
47.5381,62
47.7239,72
47.9096,55
48.0954,58
48.2811,61
48.4669,70
48.6527,65
48.8384,71
49.0242,68
49.2099,77
49.3957,63
49.5814,63
49.7672,56
49.9530,65
50.1387,76
50.3245,68
50.5102,46
50.6960,44
50.8817,50
51.0675,60
51.2532,62
51.4390,67
51.6248,48
51.8105,62
51.9963,60
52.1820,53
52.3678,47
52.5535,57
52.7393,51
52.9250,59
53.1108,58
53.2966,55
53.4823,63
53.6681,59
53.8538,60
54.0396,71
54.2253,56
54.4111,60
54.5969,63
54.7826,44
54.9684,49
55.1541,44
55.3399,75
55.5256,57
55.7114,59
55.8971,56
56.0829,56
56.2687,63
56.4544,58
56.6402,65
56.8259,51
57.0117,45
57.1974,67
57.3832,60
57.5689,57
57.7547,59
57.9405,53
58.1262,49
58.3120,67
58.4977,67
58.6835,58
58.8692,55
59.0550,51
59.2408,52
59.4265,64
59.6123,59
59.7980,47
59.9838,57
60.0024,63

File: ML_20220718_46_SJD_4_LaB6-1min.csv
;,2THETA,
5.0000,93
5.1858,103
5.3715,80
5.5573,78
5.7430,77
5.9288,81
6.1145,60
6.3003,77
6.4860,59
6.6718,51
6.8576,71
7.0433,63
7.2291,70
7.4148,60
7.6006,53
7.7863,65
7.9721,70
8.1579,65
8.3436,66
8.5294,68
8.7151,73
8.9009,88
9.0866,67
9.2724,67
9.4581,88
9.6439,75
9.8297,75
10.0154,96
10.2012,93
10.3869,100
10.5727,85
10.7584,81
10.9442,68
11.1299,71
11.3157,84
11.5015,99
11.6872,87
11.8730,78
12.0587,81
12.2445,81
12.4302,78
12.6160,90
12.8018,85
12.9875,95
13.1733,77
13.3590,70
13.5448,63
13.7305,49
13.9163,89
14.1020,68
14.2878,74
14.4736,62
14.6593,55
14.8451,58
15.0308,55
15.2166,56
15.4023,56
15.5881,60
15.7738,56
15.9596,65
16.1454,55
16.3311,58
16.5169,60
16.7026,70
16.8884,58
17.0741,57
17.2599,56
17.4457,54
17.6314,61
17.8172,66
18.0029,60
18.1887,65
18.3744,70
18.5602,48
18.7459,74
18.9317,53
19.1175,60
19.3032,59
19.4890,65
19.6747,61
19.8605,60
20.0462,82
20.2320,73
20.4177,69
20.6035,64
20.7893,69
20.9750,76
21.1608,97
21.3465,192
21.5323,81
21.7180,71
21.9038,76
22.0896,68
22.2753,61
22.4611,90
22.6468,72
22.8326,78
23.0183,65
23.2041,73
23.3898,71
23.5756,77
23.7614,77
23.9471,73
24.1329,84
24.3186,77
24.5044,80
24.6901,69
24.8759,78
25.0616,80
25.2474,78
25.4332,74
25.6189,78
25.8047,70
25.9904,65
26.1762,67
26.3619,75
26.5477,76
26.7335,65
26.9192,74
27.1050,75
27.2907,77
27.4765,75
27.6622,64
27.8480,67
28.0337,70
28.2195,64
28.4053,59
28.5910,53
28.7768,81
28.9625,55
29.1483,57
29.3340,62
29.5198,57
29.7055,50
29.8913,48
30.0771,45
30.2628,63
30.4486,86
30.6343,58
30.8201,59
31.0058,63
31.1916,52
31.3774,51
31.5631,46
31.7489,57
31.9346,50
32.1204,43
32.3061,54
32.4919,49
32.6776,44
32.8634,43
33.0492,38
33.2349,43
33.4207,44
33.6064,49
33.7922,54
33.9779,39
34.1637,51
34.3494,39
34.5352,51
34.7210,51
34.9067,44
35.0925,49
35.2782,26
35.4640,35
35.6497,37
35.8355,37
36.0213,32
36.2070,38
36.3928,42
36.5785,38
36.7643,40
36.9500,41
37.1358,42
37.3215,37
37.5073,56
37.6931,30
37.8788,25
38.0646,44
38.2503,32
38.4361,26
38.6218,28
38.8076,46
38.9933,24
39.1791,27
39.3649,26
39.5506,24
39.7364,29
39.9221,35
40.1079,24
40.2936,32
40.4794,20
40.6652,25
40.8509,33
41.0367,27
41.2224,25
41.4082,25
41.5939,21
41.7797,22
41.9654,35
42.1512,27
42.3370,29
42.5227,27
42.7085,28
42.8942,26
43.0800,31
43.2657,36
43.4515,41
43.6372,34
43.8230,23
44.0088,20
44.1945,25
44.3803,31
44.5660,27
44.7518,24
44.9375,24
45.1233,30
45.3091,27
45.4948,28
45.6806,30
45.8663,17
46.0521,21
46.2378,14
46.4236,20
46.6093,23
46.7951,22
46.9809,18
47.1666,23
47.3524,26
47.5381,14
47.7239,37
47.9096,18
48.0954,17
48.2811,21
48.4669,25
48.6527,16
48.8384,24
49.0242,32
49.2099,28
49.3957,29
49.5814,23
49.7672,25
49.9530,18
50.1387,23
50.3245,20
50.5102,21
50.6960,20
50.8817,16
51.0675,23
51.2532,27
51.4390,25
51.6248,16
51.8105,21
51.9963,20
52.1820,18
52.3678,25
52.5535,21
52.7393,18
52.9250,17
53.1108,15
53.2966,16
53.4823,16
53.6681,30
53.8538,22
54.0396,22
54.2253,27
54.4111,23
54.5969,21
54.7826,14
54.9684,13
55.1541,25
55.3399,20
55.5256,12
55.7114,20
55.8971,21
56.0829,18
56.2687,20
56.4544,16
56.6402,26
56.8259,12
57.0117,24
57.1974,16
57.3832,17
57.5689,25
57.7547,17
57.9405,15
58.1262,17
58.3120,27
58.4977,23
58.6835,24
58.8692,16
59.0550,24
59.2408,24
59.4265,20
59.6123,23
59.7980,22
59.9838,19
60.0024,21