Folder: xrd_clustering/notebooks/data/xrd_data (part 42)

File: ML_20220721_27_SJD_4_LaB6-4min.uxd
; (content of file Y:\Sam\Apurva-07-20-2022\puck1\ML_20220721_27_SJD_0_LaB6-4min.raw)
_FILEVERSION = 3
_SAMPLE = ML_20220721_27_SJD_0_LaB6-4min
_+SAMPLE =
_SITE = USA
_USER = Administrator
_GONIOMETER_CODE = 20
; Goniometer : D8 theta/2theta, stage : Unknown
_ATTACHMENTS_CODE = 0
_GONIOMETER_RADIUS = 200.5
_FIXED_DIVSLIT = 0.6
_FIXED_SAMPLESLIT = 0
_SOLLER_SLITS = 2
_FIXED_DETSLIT = 9.55
_MONOCHROMATOR = 0
; Incident beam monochromator : None
_SOLLER_SLITS_2 = N
_THIN_FILM = N
_BETA_FILTER = Y
_FIXED_ANTISLIT = 5.89
_ANALYZER_CODE = 0
; Received beam analyzer : None
_DATEMEASURED = "25-Jul-2022 15:53:34"
_WL_UNIT = A
_WL1 = 1.5406
_WL2 = 1.54439
_WL3 = 1.39222
_WLRATIO = 0.5
_ANODE = Cu
_V4_INF_CREATOR = XRDWizard
_V4_INF_CREATOR_VERSION = V2.9.0.22
_V4_INF_WIZARD_VERSION = V2.9.0.22
_V4_INF_WIZARD_ADDINS = V2.9.0.22
_V4_INF_WIZARD_DOCTYPE = XRD
_V4_INF_OSUSER = McQueenLab
_V4_INF_USER = Administrator
_V4_INF_SITE = USA
_V4_INF_SAMPLEID = ML_20220721_27_SJD_0_LaB6-4min

; Data for range 1
_DRIVE = COUPLED
_STEPTIME = 11.28
_STEPSIZE = 0.0185756
_STEPMODE = C
_START = 5
_THETA = 2.5
_2THETA = 5
_KHI = 0
_PHI = 0
_X = 0
_Y = 0
_Z = 0
_DETECTOR = 5
; Detector type : Unknown
_DETECTORSLIT = unkn
_AUX1 = 0
_AUX2 = 0
_AUX3 = 0
_TIMESTARTED = 15
_TEMP_RATE = -1
_TEMP_DELAY = -1
_KV = 40
_MA = 40
_RANGE_WL = 1.5406
_3DPLANE = 0
_V4_ADDITIONALDETECTOR = 257
_V4_PSD2THETA = 3.3651
_V4_PSDCHANNEL1 = 0
_V4_PSDAPERTURE = 12.68
_V4_PSDTYPE = 5
_V4_PSDFIXED = 0
_V4_COUNTERS_MASK = 4096
_V4_DRIVES_MASK = 0
_V4_ENCODERS_MASK = 0
_2THETACOUNTS = 1
; 2THETA  PSD
   5.0000        250
   5.1858        263
   5.3715        231
   5.5573        223
   5.7430        221
   5.9288        213
   6.1145        197
   6.3003        197
   6.4860        184
   6.6718        178
   6.8576        159
   7.0433        145
   7.2291        171
   7.4148        146
   7.6006        188
   7.7863        189
   7.9721        176
   8.1579        168
   8.3436        224
   8.5294        199
   8.7151        199
   8.9009        210
   9.0866        206
   9.2724        219
   9.4581        211
   9.6439        237
   9.8297        217
  10.0154        225
  10.2012        261
  10.3869        234
  10.5727        241
  10.7584        254
  10.9442        282
  11.1299        233
  11.3157        254
  11.5015        208
  11.6872        235
  11.8730        244
  12.0587        241
  12.2445        237
  12.4302        225
  12.6160        206
  12.8018        208
  12.9875        228
  13.1733        211
  13.3590        191
  13.5448        206
  13.7305        183
  13.9163        202
  14.1020        194
  14.2878        185
  14.4736        187
  14.6593        150
  14.8451        197
  15.0308        185
  15.2166        192
  15.4023        179
  15.5881        140
  15.7738        149
  15.9596        152
  16.1454        179
  16.3311        144
  16.5169        172
  16.7026        150
  16.8884        152
  17.0741        154
  17.2599        165
  17.4457        154
  17.6314        165
  17.8172        159
  18.0029        181
  18.1887        146
  18.3744        156
  18.5602        143
  18.7459        169
  18.9317        160
  19.1175        190
  19.3032        184
  19.4890        186
  19.6747        182
  19.8605        197
  20.0462        171
  20.2320        182
  20.4177        168
  20.6035        196
  20.7893        188
  20.9750        199
  21.1608        219
  21.3465        501
  21.5323        217
  21.7180        192
  21.9038        199
  22.0896        183
  22.2753        186
  22.4611        202
  22.6468        202
  22.8326        216
  23.0183        185
  23.2041        185
  23.3898        177
  23.5756        189
  23.7614        218
  23.9471        186
  24.1329        198
  24.3186        258
  24.5044        182
  24.6901        212
  24.8759        198
  25.0616        196
  25.2474        201
  25.4332        199
  25.6189        195
  25.8047        202
  25.9904        186
  26.1762        197
  26.3619        207
  26.5477        199
  26.7335        177
  26.9192        193
  27.1050        180
  27.2907        206
  27.4765        181
  27.6622        201
  27.8480        200
  28.0337        154
  28.2195        163
  28.4053        167
  28.5910        153
  28.7768        137
  28.9625        170
  29.1483        159
  29.3340        161
  29.5198        155
  29.7055        152
  29.8913        166
  30.0771        150
  30.2628        173
  30.4486        240
  30.6343        126
  30.8201        144
  31.0058        117
  31.1916        148
  31.3774        143
  31.5631        153
  31.7489        156
  31.9346        127
  32.1204        157
  32.3061        141
  32.4919        126
  32.6776        137
  32.8634        119
  33.0492        123
  33.2349        122
  33.4207        118
  33.6064        115
  33.7922        133
  33.9779        119
  34.1637        103
  34.3494        110
  34.5352        102
  34.7210        138
  34.9067        154
  35.0925        120
  35.2782         96
  35.4640        122
  35.6497        102
  35.8355        108
  36.0213        102
  36.2070         86
  36.3928         94
  36.5785         95
  36.7643         93
  36.9500         94
  37.1358         81
  37.3215         99
  37.5073        111
  37.6931        116
  37.8788         83
  38.0646         93
  38.2503        100
  38.4361         90
  38.6218         88
  38.8076         72
  38.9933         75
  39.1791         74
  39.3649        109
  39.5506         74
  39.7364         73
  39.9221         88
  40.1079         81
  40.2936         77
  40.4794         74
  40.6652         85
  40.8509         83
  41.0367         87
  41.2224         82
  41.4082         69
  41.5939         85
  41.7797         89
  41.9654         80
  42.1512         91
  42.3370         71
  42.5227         98
  42.7085         72
  42.8942         76
  43.0800         68
  43.2657         96
  43.4515         93
  43.6372        121
  43.8230         74
  44.0088         72
  44.1945         74
  44.3803         78
  44.5660         82
  44.7518         82
  44.9375         74
  45.1233         61
  45.3091         60
  45.4948         79
  45.6806         75
  45.8663         76
  46.0521         75
  46.2378         67
  46.4236         76
  46.6093         60
  46.7951         49
  46.9809         58
  47.1666         56
  47.3524         65
  47.5381         51
  47.7239         58
  47.9096         58
  48.0954         67
  48.2811         57
  48.4669         68
  48.6527         60
  48.8384         74
  49.0242         91
  49.2099         65
  49.3957         51
  49.5814         58
  49.7672         72
  49.9530         60
  50.1387         76
  50.3245         71
  50.5102         62
  50.6960         54
  50.8817         68
  51.0675         59
  51.2532         55
  51.4390         78
  51.6248         60
  51.8105         67
  51.9963         75
  52.1820         62
  52.3678         70
  52.5535         66
  52.7393         53
  52.9250         63
  53.1108         78
  53.2966         59
  53.4823         57
  53.6681         62
  53.8538         62
  54.0396         59
  54.2253         61
  54.4111         44
  54.5969         60
  54.7826         55
  54.9684         59
  55.1541         62
  55.3399         54
  55.5256         68
  55.7114         54
  55.8971         60
  56.0829         61
  56.2687         53
  56.4544         56
  56.6402         56
  56.8259         73
  57.0117         52
  57.1974         64
  57.3832         54
  57.5689         62
  57.7547         54
  57.9405         71
  58.1262         59
  58.3120         52
  58.4977         47
  58.6835         56
  58.8692         61
  59.0550         53
  59.2408         50
  59.4265         51
  59.6123         56
  59.7980         50
  59.9838         62
  60.0024         46

File: ML_20220721_28_SJD_4_LaB6-4min.csv
;,2THETA,
5.0000,257
5.1858,270
5.3715,246
5.5573,197
5.7430,198
5.9288,203
6.1145,208
6.3003,188
6.4860,171
6.6718,175
6.8576,203
7.0433,150
7.2291,172
7.4148,147
7.6006,198
7.7863,192
7.9721,198
8.1579,174
8.3436,176
8.5294,215
8.7151,219
8.9009,195
9.0866,204
9.2724,226
9.4581,216
9.6439,215
9.8297,232
10.0154,236
10.2012,257
10.3869,238
10.5727,233
10.7584,253
10.9442,233
11.1299,215
11.3157,209
11.5015,202
11.6872,223
11.8730,225
12.0587,214
12.2445,217
12.4302,231
12.6160,199
12.8018,225
12.9875,203
13.1733,201
13.3590,186
13.5448,188
13.7305,165
13.9163,192
14.1020,193
14.2878,156
14.4736,181
14.6593,169
14.8451,182
15.0308,209
15.2166,158
15.4023,175
15.5881,147
15.7738,158
15.9596,175
16.1454,149
16.3311,150
16.5169,150
16.7026,183
16.8884,183
17.0741,150
17.2599,152
17.4457,157
17.6314,164
17.8172,166
18.0029,156
18.1887,178
18.3744,164
18.5602,174
18.7459,175
18.9317,160
19.1175,158
19.3032,173
19.4890,166
19.6747,182
19.8605,180
20.0462,174
20.2320,183
20.4177,191
20.6035,177
20.7893,197
20.9750,184
21.1608,254
21.3465,496
21.5323,227
21.7180,206
21.9038,190
22.0896,208
22.2753,213
22.4611,204
22.6468,198
22.8326,190
23.0183,187
23.2041,182
23.3898,203
23.5756,165
23.7614,207
23.9471,196
24.1329,212
24.3186,236
24.5044,197
24.6901,212
24.8759,195
25.0616,219
25.2474,208
25.4332,175
25.6189,196
25.8047,189
25.9904,201
26.1762,188
26.3619,184
26.5477,171
26.7335,180
26.9192,186
27.1050,181
27.2907,200
27.4765,202
27.6622,181
27.8480,184
28.0337,174
28.2195,164
28.4053,183
28.5910,177
28.7768,161
28.9625,179
29.1483,158
29.3340,166
29.5198,151
29.7055,141
29.8913,166
30.0771,159
30.2628,157
30.4486,269
30.6343,172
30.8201,152
31.0058,135
31.1916,143
31.3774,145
31.5631,117
31.7489,136
31.9346,137
32.1204,143
32.3061,122
32.4919,160
32.6776,118
32.8634,89
33.0492,98
33.2349,117
33.4207,113
33.6064,122
33.7922,122
33.9779,120
34.1637,122
34.3494,104
34.5352,110
34.7210,143
34.9067,143
35.0925,110
35.2782,103
35.4640,97
35.6497,91
35.8355,100
36.0213,96
36.2070,102
36.3928,86
36.5785,89
36.7643,101
36.9500,92
37.1358,97
37.3215,84
37.5073,118
37.6931,79
37.8788,78
38.0646,89
38.2503,73
38.4361,88
38.6218,88
38.8076,92
38.9933,100
39.1791,69
39.3649,73
39.5506,83
39.7364,82
39.9221,70
40.1079,77
40.2936,87
40.4794,82
40.6652,88
40.8509,71
41.0367,88
41.2224,63
41.4082,74
41.5939,69
41.7797,89
41.9654,76
42.1512,79
42.3370,81
42.5227,61
42.7085,90
42.8942,62
43.0800,77
43.2657,79
43.4515,89
43.6372,104
43.8230,74
44.0088,62
44.1945,70
44.3803,74
44.5660,101
44.7518,67
44.9375,77
45.1233,65
45.3091,71
45.4948,60
45.6806,72
45.8663,78
46.0521,62
46.2378,71
46.4236,63
46.6093,60
46.7951,65
46.9809,67
47.1666,69
47.3524,74
47.5381,49
47.7239,69
47.9096,53
48.0954,72
48.2811,71
48.4669,59
48.6527,69
48.8384,67
49.0242,71
49.2099,59
49.3957,55
49.5814,59
49.7672,68
49.9530,57
50.1387,64
50.3245,73
50.5102,62
50.6960,64
50.8817,62
51.0675,57
51.2532,65
51.4390,73
51.6248,62
51.8105,67
51.9963,67
52.1820,62
52.3678,51
52.5535,50
52.7393,62
52.9250,61
53.1108,65
53.2966,52
53.4823,65
53.6681,64
53.8538,53
54.0396,63
54.2253,76
54.4111,51
54.5969,56
54.7826,65
54.9684,56
55.1541,54
55.3399,71
55.5256,51
55.7114,57
55.8971,45
56.0829,50
56.2687,63
56.4544,60
56.6402,44
56.8259,52
57.0117,57
57.1974,56
57.3832,48
57.5689,64
57.7547,46
57.9405,64
58.1262,67
58.3120,62
58.4977,56
58.6835,58
58.8692,66
59.0550,62
59.2408,43
59.4265,46
59.6123,54
59.7980,56
59.9838,49
60.0024,63

File: ML_20220721_29_SJD_4_LaB6-4min.csv
;,2THETA,
5.0000,285
5.1858,247
5.3715,203
5.5573,229
5.7430,200
5.9288,192
6.1145,200
6.3003,180
6.4860,196
6.6718,172
6.8576,157
7.0433,160
7.2291,167
7.4148,163
7.6006,179
7.7863,191
7.9721,173
8.1579,204
8.3436,198
8.5294,207
8.7151,194
8.9009,216
9.0866,196
9.2724,206
9.4581,219
9.6439,227
9.8297,240
10.0154,217
10.2012,249
10.3869,249
10.5727,219
10.7584,238
10.9442,240
11.1299,235
11.3157,239
11.5015,247
11.6872,233
11.8730,207
12.0587,261
12.2445,239
12.4302,233
12.6160,221
12.8018,222
12.9875,217
13.1733,211
13.3590,198
13.5448,175
13.7305,183
13.9163,201
14.1020,190
14.2878,184
14.4736,173
14.6593,159
14.8451,153
15.0308,195
15.2166,168
15.4023,183
15.5881,162
15.7738,195
15.9596,163
16.1454,150
16.3311,165
16.5169,164
16.7026,159
16.8884,177
17.0741,156
17.2599,156
17.4457,137
17.6314,162
17.8172,169
18.0029,148
18.1887,185
18.3744,171
18.5602,150
18.7459,172
18.9317,171
19.1175,159
19.3032,171
19.4890,191
19.6747,154
19.8605,178
20.0462,173
20.2320,153
20.4177,166
20.6035,180
20.7893,178
20.9750,186
21.1608,209
21.3465,521
21.5323,199
21.7180,203
21.9038,208
22.0896,190
22.2753,221
22.4611,216
22.6468,204
22.8326,202
23.0183,204
23.2041,195
23.3898,187
23.5756,200
23.7614,204
23.9471,196
24.1329,202
24.3186,204
24.5044,214
24.6901,195
24.8759,196
25.0616,205
25.2474,199
25.4332,213
25.6189,196
25.8047,192
25.9904,226
26.1762,194
26.3619,205
26.5477,191
26.7335,200
26.9192,185
27.1050,209
27.2907,244
27.4765,186
27.6622,188
27.8480,182
28.0337,180
28.2195,151
28.4053,173
28.5910,171
28.7768,165
28.9625,156
29.1483,170
29.3340,169
29.5198,170
29.7055,159
29.8913,149
30.0771,158
30.2628,158
30.4486,285
30.6343,149
30.8201,154
31.0058,137
31.1916,138
31.3774,152
31.5631,125
31.7489,140
31.9346,121
32.1204,134
32.3061,136
32.4919,130
32.6776,156
32.8634,128
33.0492,106
33.2349,118
33.4207,97
33.6064,108
33.7922,125
33.9779,131
34.1637,122
34.3494,107
34.5352,126
34.7210,152
34.9067,125
35.0925,97
35.2782,111
35.4640,107
35.6497,112
35.8355,91
36.0213,94
36.2070,98
36.3928,106
36.5785,101
36.7643,98
36.9500,97
37.1358,90
37.3215,98
37.5073,108
37.6931,105
37.8788,71
38.0646,89
38.2503,106
38.4361,82
38.6218,83
38.8076,102
38.9933,75
39.1791,87
39.3649,74
39.5506,91
39.7364,78
39.9221,66
40.1079,80
40.2936,74
40.4794,84
40.6652,83
40.8509,83
41.0367,63
41.2224,82
41.4082,84
41.5939,67
41.7797,65
41.9654,68
42.1512,90
42.3370,84
42.5227,61
42.7085,96
42.8942,87
43.0800,74
43.2657,81
43.4515,87
43.6372,112
43.8230,71
44.0088,73
44.1945,73
44.3803,85
44.5660,63
44.7518,92
44.9375,64
45.1233,75
45.3091,66
45.4948,70
45.6806,69
45.8663,66
46.0521,78
46.2378,62
46.4236,65
46.6093,59
46.7951,59
46.9809,78
47.1666,59
47.3524,63
47.5381,60
47.7239,71
47.9096,66
48.0954,50
48.2811,59
48.4669,57
48.6527,59
48.8384,75
49.0242,78
49.2099,56
49.3957,57
49.5814,54
49.7672,54
49.9530,59
50.1387,65
50.3245,50
50.5102,66
50.6960,62
50.8817,54
51.0675,61
51.2532,73
51.4390,85
51.6248,57
51.8105,52
51.9963,58
52.1820,59
52.3678,41
52.5535,56
52.7393,54
52.9250,52
53.1108,62
53.2966,68
53.4823,72
53.6681,56
53.8538,47
54.0396,68
54.2253,49
54.4111,58
54.5969,50
54.7826,59
54.9684,67
55.1541,69
55.3399,62
55.5256,55
55.7114,61
55.8971,51
56.0829,59
56.2687,66
56.4544,65
56.6402,54
56.8259,58
57.0117,72
57.1974,55
57.3832,49
57.5689,34
57.7547,76
57.9405,54
58.1262,45
58.3120,48
58.4977,60
58.6835,44
58.8692,55
59.0550,54
59.2408,55
59.4265,59
59.6123,62
59.7980,61
59.9838,49
60.0024,40

File: ML_20220721_30_SJD_4_LaB6-4min.uxd
; (content of file Y:\Sam\Apurva-07-20-2022\puck1\ML_20220721_30_SJD_0_LaB6-4min.raw)
_FILEVERSION = 3
_SAMPLE = ML_20220721_30_SJD_0_LaB6-4min
_+SAMPLE =
_SITE = USA
_USER = Administrator
_GONIOMETER_CODE = 20
; Goniometer : D8 theta/2theta, stage : Unknown
_ATTACHMENTS_CODE = 0
_GONIOMETER_RADIUS = 200.5
_FIXED_DIVSLIT = 0.6
_FIXED_SAMPLESLIT = 0
_SOLLER_SLITS = 2
_FIXED_DETSLIT = 9.55
_MONOCHROMATOR = 0
; Incident beam monochromator : None
_SOLLER_SLITS_2 = N
_THIN_FILM = N
_BETA_FILTER = Y
_FIXED_ANTISLIT = 5.89
_ANALYZER_CODE = 0
; Received beam analyzer : None
_DATEMEASURED = "25-Jul-2022 16:07:01"
_WL_UNIT = A
_WL1 = 1.5406
_WL2 = 1.54439
_WL3 = 1.39222
_WLRATIO = 0.5
_ANODE = Cu
_V4_INF_CREATOR = XRDWizard
_V4_INF_CREATOR_VERSION = V2.9.0.22
_V4_INF_WIZARD_VERSION = V2.9.0.22
_V4_INF_WIZARD_ADDINS = V2.9.0.22
_V4_INF_WIZARD_DOCTYPE = XRD
_V4_INF_OSUSER = McQueenLab
_V4_INF_USER = Administrator
_V4_INF_SITE = USA
_V4_INF_SAMPLEID = ML_20220721_30_SJD_0_LaB6-4min

; Data for range 1
_DRIVE = COUPLED
_STEPTIME = 11.28
_STEPSIZE = 0.0185756
_STEPMODE = C
_START = 5
_THETA = 2.5
_2THETA = 5
_KHI = 0
_PHI = 0
_X = 0
_Y = 0
_Z = 0
_DETECTOR = 5
; Detector type : Unknown
_DETECTORSLIT = unkn
_AUX1 = 0
_AUX2 = 0
_AUX3 = 0
_TIMESTARTED = 16
_TEMP_RATE = -1
_TEMP_DELAY = -1
_KV = 40
_MA = 40
_RANGE_WL = 1.5406
_3DPLANE = 0
_V4_ADDITIONALDETECTOR = 257
_V4_PSD2THETA = 3.3674
_V4_PSDCHANNEL1 = 0
_V4_PSDAPERTURE = 12.68
_V4_PSDTYPE = 5
_V4_PSDFIXED = 0
_V4_COUNTERS_MASK = 4096
_V4_DRIVES_MASK = 0
_V4_ENCODERS_MASK = 0
_2THETACOUNTS = 1
; 2THETA  PSD
   5.0000        249
   5.1858        258
   5.3715        228
   5.5573        229
   5.7430        250
   5.9288        186
   6.1145        193
   6.3003        213
   6.4860        175
   6.6718        177
   6.8576        188
   7.0433        138
   7.2291        177
   7.4148        176
   7.6006        195
   7.7863        184
   7.9721        193
   8.1579        160
   8.3436        198
   8.5294        204
   8.7151        215
   8.9009        210
   9.0866        226
   9.2724        213
   9.4581        203
   9.6439        226
   9.8297        248
  10.0154        231
  10.2012        243
  10.3869        242
  10.5727        267
  10.7584        242
  10.9442        242
  11.1299        253
  11.3157        265
  11.5015        241
  11.6872        216
  11.8730        230
  12.0587        223
  12.2445        226
  12.4302        206
  12.6160        184
  12.8018        243
  12.9875        191
  13.1733        195
  13.3590        196
  13.5448        203
  13.7305        237
  13.9163        177
  14.1020        191
  14.2878        155
  14.4736        185
  14.6593        174
  14.8451        171
  15.0308        148
  15.2166        189
  15.4023        164
  15.5881        136
  15.7738        155
  15.9596        160
  16.1454        163
  16.3311        164
  16.5169        134
  16.7026        185
  16.8884        146
  17.0741        154
  17.2599        160
  17.4457        162
  17.6314        181
  17.8172        172
  18.0029        163
  18.1887        166
  18.3744        176
  18.5602        175
  18.7459        179
  18.9317        164
  19.1175        178
  19.3032        159
  19.4890        200
  19.6747        192
  19.8605        191
  20.0462        192
  20.2320        190
  20.4177        182
  20.6035        182
  20.7893        200
  20.9750        188
  21.1608        265
  21.3465        534
  21.5323        235
  21.7180        193
  21.9038        197
  22.0896        205
  22.2753        202
  22.4611        178
  22.6468        192
  22.8326        201
  23.0183        218
  23.2041        216
  23.3898        175
  23.5756        213
  23.7614        196
  23.9471        191
  24.1329        200
  24.3186        201
  24.5044        219
  24.6901        182
  24.8759        208
  25.0616        194
  25.2474        192
  25.4332        181
  25.6189        198
  25.8047        188
  25.9904        179
  26.1762        196
  26.3619        207
  26.5477        169
  26.7335        183
  26.9192        188
  27.1050        177
  27.2907        244
  27.4765        202
  27.6622        175
  27.8480        193
  28.0337        172
  28.2195        171
  28.4053        182
  28.5910        142
  28.7768        154
  28.9625        143
  29.1483        177
  29.3340        146
  29.5198        152
  29.7055        179
  29.8913        139
  30.0771        169
  30.2628        187
  30.4486        260
  30.6343        131
  30.8201        134
  31.0058        148
  31.1916        119
  31.3774        127
  31.5631        158
  31.7489        144
  31.9346        138
  32.1204        130
  32.3061        131
  32.4919        141
  32.6776        126
  32.8634        112
  33.0492        101
  33.2349        132
  33.4207        123
  33.6064        111
  33.7922        139
  33.9779        117
  34.1637        111
  34.3494        116
  34.5352        134
  34.7210        142
  34.9067        135
  35.0925        110
  35.2782        129
  35.4640        111
  35.6497        105
  35.8355        107
  36.0213         91
  36.2070        104
  36.3928        115
  36.5785        116
  36.7643         88
  36.9500         95
  37.1358         98
  37.3215         87
  37.5073        117
  37.6931        110
  37.8788         80
  38.0646         71
  38.2503         89
  38.4361         88
  38.6218         82
  38.8076         85
  38.9933         64
  39.1791         79
  39.3649         76
  39.5506         92
  39.7364         77
  39.9221         78
  40.1079         70
  40.2936         91
  40.4794         79
  40.6652         58
  40.8509         80
  41.0367         88
  41.2224         72
  41.4082         79
  41.5939         77
  41.7797         79
  41.9654         74
  42.1512         87
  42.3370         84
  42.5227         89
  42.7085         82
  42.8942         92
  43.0800         91
  43.2657         98
  43.4515         85
  43.6372        100
  43.8230         81
  44.0088         75
  44.1945         63
  44.3803         70
  44.5660         78
  44.7518         86
  44.9375         60
  45.1233         72
  45.3091         77
  45.4948         72
  45.6806         69
  45.8663         64
  46.0521         82
  46.2378         74
  46.4236         67
  46.6093         76
  46.7951         62
  46.9809         65
  47.1666         71
  47.3524         61
  47.5381         81
  47.7239         63
  47.9096         61
  48.0954         67
  48.2811         68
  48.4669         66
  48.6527         66
  48.8384         75
  49.0242         89
  49.2099         72
  49.3957         62
  49.5814         79
  49.7672         68
  49.9530         53
  50.1387         61
  50.3245         77
  50.5102         51
  50.6960         50
  50.8817         58
  51.0675         49
  51.2532         64
  51.4390         56
  51.6248         52
  51.8105         89
  51.9963         58
  52.1820         58
  52.3678         55
  52.5535         64
  52.7393         57
  52.9250         69
  53.1108         60
  53.2966         58
  53.4823         59
  53.6681         67
  53.8538         54
  54.0396         62
  54.2253         67
  54.4111         63
  54.5969         57
  54.7826         59
  54.9684         56
  55.1541         49
  55.3399         40
  55.5256         42
  55.7114         39
  55.8971         58
  56.0829         68
  56.2687         63
  56.4544         61
  56.6402         48
  56.8259         54
  57.0117         59
  57.1974         58
  57.3832         68
  57.5689         59
  57.7547         52
  57.9405         69
  58.1262         52
  58.3120         51
  58.4977         61
  58.6835         52
  58.8692         71
  59.0550         55
  59.2408         51
  59.4265         35
  59.6123         43
  59.7980         59
  59.9838         57
  60.0024         55