Folder: xrd_clustering/notebooks/data/xrd_data (part 33)

File: ML_20220720_20_SJD_4_LaB6-1min.uxd
; (content of file Y:\Sam\Apurva-07-20-2022\puck2\ML_20220720_20_SJD_0_LaB6-1min.raw)
_FILEVERSION = 3
_SAMPLE = ML_20220720_20_SJD_0_LaB6-1min
_+SAMPLE =
_SITE = USA
_USER = Administrator
_GONIOMETER_CODE = 20
; Goniometer : D8 theta/2theta, stage : Unknown
_ATTACHMENTS_CODE = 0
_GONIOMETER_RADIUS = 200.5
_FIXED_DIVSLIT = 0.6
_FIXED_SAMPLESLIT = 0
_SOLLER_SLITS = 2
_FIXED_DETSLIT = 9.55
_MONOCHROMATOR = 0
; Incident beam monochromator : None
_SOLLER_SLITS_2 = N
_THIN_FILM = N
_BETA_FILTER = Y
_FIXED_ANTISLIT = 5.89
_ANALYZER_CODE = 0
; Received beam analyzer : None
_DATEMEASURED = "25-Jul-2022 18:23:39"
_WL_UNIT = A
_WL1 = 1.5406
_WL2 = 1.54439
_WL3 = 1.39222
_WLRATIO = 0.5
_ANODE = Cu
_V4_INF_CREATOR = XRDWizard
_V4_INF_CREATOR_VERSION = V2.9.0.22
_V4_INF_WIZARD_VERSION = V2.9.0.22
_V4_INF_WIZARD_ADDINS = V2.9.0.22
_V4_INF_WIZARD_DOCTYPE = XRD
_V4_INF_OSUSER = McQueenLab
_V4_INF_USER = Administrator
_V4_INF_SITE = USA
_V4_INF_SAMPLEID = ML_20220720_20_SJD_0_LaB6-1min

; Data for range 1
_DRIVE = COUPLED
_STEPTIME = 4.23
_STEPSIZE = 0.0185756
_STEPMODE = C
_START = 5
_THETA = 2.5
_2THETA = 5
_KHI = 0
_PHI = 0
_X = 0
_Y = 0
_Z = 0
_DETECTOR = 5
; Detector type : Unknown
_DETECTORSLIT = unkn
_AUX1 = 0
_AUX2 = 0
_AUX3 = 0
_TIMESTARTED = 14
_TEMP_RATE = -1
_TEMP_DELAY = -1
_KV = 40
_MA = 40
_RANGE_WL = 1.5406
_3DPLANE = 0
_V4_ADDITIONALDETECTOR = 257
_V4_PSD2THETA = 3.3766
_V4_PSDCHANNEL1 = 0
_V4_PSDAPERTURE = 12.68
_V4_PSDTYPE = 5
_V4_PSDFIXED = 0
_V4_COUNTERS_MASK = 4096
_V4_DRIVES_MASK = 0
_V4_ENCODERS_MASK = 0
_2THETACOUNTS = 1
; 2THETA  PSD
   5.0000        102
   5.1858        100
   5.3715         87
   5.5573         78
   5.7430         69
   5.9288         81
   6.1145         69
   6.3003         50
   6.4860         58
   6.6718         71
   6.8576         58
   7.0433         49
   7.2291         71
   7.4148         63
   7.6006         62
   7.7863         68
   7.9721         81
   8.1579         91
   8.3436         71
   8.5294         81
   8.7151         77
   8.9009         68
   9.0866         88
   9.2724         74
   9.4581         73
   9.6439         55
   9.8297         71
  10.0154        100
  10.2012         86
  10.3869         88
  10.5727         77
  10.7584         83
  10.9442         93
  11.1299        112
  11.3157        105
  11.5015         90
  11.6872         90
  11.8730         70
  12.0587         89
  12.2445         77
  12.4302         92
  12.6160         91
  12.8018         72
  12.9875         76
  13.1733         51
  13.3590         83
  13.5448         94
  13.7305         61
  13.9163         79
  14.1020         84
  14.2878         64
  14.4736         70
  14.6593         63
  14.8451         52
  15.0308         68
  15.2166         57
  15.4023         66
  15.5881         68
  15.7738         70
  15.9596         57
  16.1454         56
  16.3311         52
  16.5169         53
  16.7026         53
  16.8884         66
  17.0741         63
  17.2599         63
  17.4457         69
  17.6314         64
  17.8172         66
  18.0029         61
  18.1887         50
  18.3744         64
  18.5602         67
  18.7459         81
  18.9317         60
  19.1175         53
  19.3032         79
  19.4890         66
  19.6747         62
  19.8605         60
  20.0462         56
  20.2320         82
  20.4177         63
  20.6035         74
  20.7893         54
  20.9750         78
  21.1608         83
  21.3465        188
  21.5323         79
  21.7180         74
  21.9038         61
  22.0896         83
  22.2753         76
  22.4611         65
  22.6468         66
  22.8326         71
  23.0183         75
  23.2041         92
  23.3898         73
  23.5756         49
  23.7614         72
  23.9471         86
  24.1329         78
  24.3186         83
  24.5044         74
  24.6901         70
  24.8759         67
  25.0616         76
  25.2474         82
  25.4332         70
  25.6189         88
  25.8047         64
  25.9904         80
  26.1762         70
  26.3619         71
  26.5477         81
  26.7335         70
  26.9192         62
  27.1050         57
  27.2907         71
  27.4765         79
  27.6622         66
  27.8480         60
  28.0337         72
  28.2195         63
  28.4053         53
  28.5910         63
  28.7768         55
  28.9625         59
  29.1483         63
  29.3340         56
  29.5198         60
  29.7055         68
  29.8913         43
  30.0771         46
  30.2628         58
  30.4486         82
  30.6343         71
  30.8201         47
  31.0058         44
  31.1916         49
  31.3774         54
  31.5631         59
  31.7489         48
  31.9346         54
  32.1204         46
  32.3061         52
  32.4919         49
  32.6776         47
  32.8634         55
  33.0492         51
  33.2349         40
  33.4207         42
  33.6064         37
  33.7922         38
  33.9779         50
  34.1637         40
  34.3494         44
  34.5352         41
  34.7210         62
  34.9067         41
  35.0925         40
  35.2782         33
  35.4640         47
  35.6497         35
  35.8355         42
  36.0213         34
  36.2070         48
  36.3928         39
  36.5785         26
  36.7643         35
  36.9500         33
  37.1358         35
  37.3215         34
  37.5073         47
  37.6931         39
  37.8788         30
  38.0646         26
  38.2503         24
  38.4361         31
  38.6218         36
  38.8076         35
  38.9933         32
  39.1791         31
  39.3649         30
  39.5506         17
  39.7364         30
  39.9221         33
  40.1079         25
  40.2936         35
  40.4794         27
  40.6652         30
  40.8509         21
  41.0367         29
  41.2224         25
  41.4082         29
  41.5939         34
  41.7797         30
  41.9654         26
  42.1512         23
  42.3370         25
  42.5227         27
  42.7085         24
  42.8942         25
  43.0800         30
  43.2657         40
  43.4515         33
  43.6372         30
  43.8230         34
  44.0088         30
  44.1945         28
  44.3803         30
  44.5660         27
  44.7518         35
  44.9375         21
  45.1233         27
  45.3091         20
  45.4948         19
  45.6806         22
  45.8663         24
  46.0521         18
  46.2378         28
  46.4236         26
  46.6093         29
  46.7951         14
  46.9809         26
  47.1666         21
  47.3524         23
  47.5381         28
  47.7239         22
  47.9096         21
  48.0954         21
  48.2811         28
  48.4669         19
  48.6527         21
  48.8384         28
  49.0242         34
  49.2099         29
  49.3957         30
  49.5814         16
  49.7672         24
  49.9530         18
  50.1387         25
  50.3245         28
  50.5102         22
  50.6960         21
  50.8817         25
  51.0675         21
  51.2532         20
  51.4390         30
  51.6248         30
  51.8105         24
  51.9963         19
  52.1820         21
  52.3678         29
  52.5535         21
  52.7393         20
  52.9250         18
  53.1108         22
  53.2966         17
  53.4823         17
  53.6681         19
  53.8538         26
  54.0396         21
  54.2253         18
  54.4111         24
  54.5969         23
  54.7826         18
  54.9684         18
  55.1541         24
  55.3399         22
  55.5256         15
  55.7114         21
  55.8971         20
  56.0829         17
  56.2687         22
  56.4544         26
  56.6402         31
  56.8259         17
  57.0117         26
  57.1974         11
  57.3832         27
  57.5689         22
  57.7547         24
  57.9405         18
  58.1262         20
  58.3120         23
  58.4977         29
  58.6835         24
  58.8692         23
  59.0550         26
  59.2408         22
  59.4265         19
  59.6123         24
  59.7980         25
  59.9838         22
  60.0024         16

File: ML_20220720_21_SJD_4_LaB6-1min.csv
;,2THETA,
5.0000,106
5.1858,74
5.3715,88
5.5573,77
5.7430,70
5.9288,75
6.1145,66
6.3003,66
6.4860,74
6.6718,55
6.8576,53
7.0433,62
7.2291,67
7.4148,51
7.6006,63
7.7863,57
7.9721,59
8.1579,67
8.3436,72
8.5294,85
8.7151,76
8.9009,80
9.0866,81
9.2724,79
9.4581,86
9.6439,86
9.8297,75
10.0154,95
10.2012,94
10.3869,74
10.5727,116
10.7584,76
10.9442,79
11.1299,81
11.3157,91
11.5015,95
11.6872,87
11.8730,84
12.0587,79
12.2445,81
12.4302,83
12.6160,75
12.8018,86
12.9875,69
13.1733,76
13.3590,77
13.5448,79
13.7305,62
13.9163,82
14.1020,69
14.2878,68
14.4736,58
14.6593,68
14.8451,65
15.0308,53
15.2166,69
15.4023,57
15.5881,58
15.7738,50
15.9596,59
16.1454,45
16.3311,50
16.5169,57
16.7026,62
16.8884,67
17.0741,57
17.2599,64
17.4457,48
17.6314,65
17.8172,61
18.0029,54
18.1887,50
18.3744,62
18.5602,75
18.7459,67
18.9317,74
19.1175,66
19.3032,55
19.4890,73
19.6747,70
19.8605,77
20.0462,62
20.2320,78
20.4177,68
20.6035,72
20.7893,67
20.9750,79
21.1608,71
21.3465,176
21.5323,65
21.7180,70
21.9038,70
22.0896,80
22.2753,89
22.4611,77
22.6468,86
22.8326,80
23.0183,61
23.2041,52
23.3898,55
23.5756,83
23.7614,66
23.9471,67
24.1329,74
24.3186,76
24.5044,86
24.6901,78
24.8759,85
25.0616,71
25.2474,67
25.4332,86
25.6189,60
25.8047,68
25.9904,81
26.1762,63
26.3619,59
26.5477,71
26.7335,89
26.9192,75
27.1050,67
27.2907,92
27.4765,54
27.6622,63
27.8480,56
28.0337,51
28.2195,53
28.4053,59
28.5910,65
28.7768,70
28.9625,72
29.1483,57
29.3340,57
29.5198,73
29.7055,70
29.8913,62
30.0771,53
30.2628,54
30.4486,98
30.6343,68
30.8201,60
31.0058,52
31.1916,54
31.3774,54
31.5631,55
31.7489,43
31.9346,50
32.1204,39
32.3061,40
32.4919,53
32.6776,55
32.8634,35
33.0492,55
33.2349,47
33.4207,35
33.6064,44
33.7922,39
33.9779,43
34.1637,47
34.3494,38
34.5352,31
34.7210,36
34.9067,55
35.0925,41
35.2782,37
35.4640,39
35.6497,30
35.8355,30
36.0213,39
36.2070,44
36.3928,30
36.5785,33
36.7643,32
36.9500,31
37.1358,28
37.3215,39
37.5073,47
37.6931,29
37.8788,40
38.0646,32
38.2503,33
38.4361,35
38.6218,33
38.8076,31
38.9933,33
39.1791,20
39.3649,39
39.5506,34
39.7364,31
39.9221,22
40.1079,31
40.2936,13
40.4794,31
40.6652,28
40.8509,36
41.0367,20
41.2224,24
41.4082,32
41.5939,24
41.7797,25
41.9654,34
42.1512,30
42.3370,24
42.5227,36
42.7085,25
42.8942,27
43.0800,37
43.2657,39
43.4515,28
43.6372,37
43.8230,27
44.0088,23
44.1945,22
44.3803,31
44.5660,35
44.7518,34
44.9375,21
45.1233,17
45.3091,22
45.4948,20
45.6806,24
45.8663,24
46.0521,19
46.2378,27
46.4236,17
46.6093,33
46.7951,21
46.9809,20
47.1666,27
47.3524,21
47.5381,21
47.7239,27
47.9096,22
48.0954,26
48.2811,22
48.4669,14
48.6527,14
48.8384,18
49.0242,26
49.2099,29
49.3957,19
49.5814,23
49.7672,26
49.9530,16
50.1387,16
50.3245,25
50.5102,24
50.6960,14
50.8817,30
51.0675,21
51.2532,19
51.4390,21
51.6248,22
51.8105,23
51.9963,22
52.1820,23
52.3678,17
52.5535,20
52.7393,24
52.9250,18
53.1108,26
53.2966,22
53.4823,21
53.6681,18
53.8538,24
54.0396,28
54.2253,28
54.4111,32
54.5969,19
54.7826,19
54.9684,19
55.1541,23
55.3399,22
55.5256,30
55.7114,25
55.8971,22
56.0829,19
56.2687,17
56.4544,16
56.6402,13
56.8259,20
57.0117,18
57.1974,19
57.3832,22
57.5689,19
57.7547,23
57.9405,16
58.1262,20
58.3120,23
58.4977,20
58.6835,13
58.8692,19
59.0550,20
59.2408,10
59.4265,20
59.6123,13
59.7980,15
59.9838,16
60.0024,21

File: ML_20220720_22_SJD_4_LaB6-1min.csv
;,2THETA,
5.0000,104
5.1858,77
5.3715,83
5.5573,84
5.7430,82
5.9288,84
6.1145,80
6.3003,62
6.4860,68
6.6718,76
6.8576,57
7.0433,59
7.2291,62
7.4148,62
7.6006,60
7.7863,80
7.9721,52
8.1579,50
8.3436,79
8.5294,61
8.7151,75
8.9009,77
9.0866,88
9.2724,88
9.4581,73
9.6439,85
9.8297,81
10.0154,81
10.2012,83
10.3869,96
10.5727,101
10.7584,86
10.9442,89
11.1299,78
11.3157,89
11.5015,89
11.6872,86
11.8730,77
12.0587,81
12.2445,85
12.4302,84
12.6160,93
12.8018,89
12.9875,68
13.1733,77
13.3590,71
13.5448,77
13.7305,79
13.9163,60
14.1020,67
14.2878,55
14.4736,57
14.6593,75
14.8451,64
15.0308,53
15.2166,67
15.4023,73
15.5881,59
15.7738,64
15.9596,55
16.1454,55
16.3311,50
16.5169,62
16.7026,63
16.8884,94
17.0741,57
17.2599,65
17.4457,59
17.6314,55
17.8172,64
18.0029,60
18.1887,69
18.3744,67
18.5602,52
18.7459,66
18.9317,66
19.1175,62
19.3032,69
19.4890,72
19.6747,88
19.8605,63
20.0462,65
20.2320,71
20.4177,77
20.6035,65
20.7893,73
20.9750,64
21.1608,102
21.3465,174
21.5323,71
21.7180,56
21.9038,85
22.0896,76
22.2753,76
22.4611,94
22.6468,79
22.8326,76
23.0183,75
23.2041,67
23.3898,84
23.5756,70
23.7614,79
23.9471,82
24.1329,78
24.3186,91
24.5044,60
24.6901,88
24.8759,84
25.0616,80
25.2474,61
25.4332,74
25.6189,71
25.8047,64
25.9904,65
26.1762,60
26.3619,59
26.5477,76
26.7335,77
26.9192,71
27.1050,71
27.2907,80
27.4765,64
27.6622,70
27.8480,69
28.0337,71
28.2195,78
28.4053,57
28.5910,61
28.7768,61
28.9625,66
29.1483,55
29.3340,61
29.5198,55
29.7055,60
29.8913,69
30.0771,58
30.2628,49
30.4486,95
30.6343,53
30.8201,52
31.0058,49
31.1916,60
31.3774,60
31.5631,37
31.7489,48
31.9346,55
32.1204,40
32.3061,48
32.4919,59
32.6776,35
32.8634,44
33.0492,52
33.2349,53
33.4207,41
33.6064,42
33.7922,44
33.9779,53
34.1637,38
34.3494,36
34.5352,41
34.7210,70
34.9067,45
35.0925,34
35.2782,30
35.4640,40
35.6497,29
35.8355,45
36.0213,40
36.2070,39
36.3928,46
36.5785,33
36.7643,38
36.9500,43
37.1358,40
37.3215,38
37.5073,43
37.6931,38
37.8788,33
38.0646,31
38.2503,35
38.4361,32
38.6218,35
38.8076,23
38.9933,28
39.1791,38
39.3649,33
39.5506,27
39.7364,25
39.9221,28
40.1079,33
40.2936,33
40.4794,24
40.6652,29
40.8509,24
41.0367,30
41.2224,30
41.4082,18
41.5939,30
41.7797,23
41.9654,31
42.1512,27
42.3370,29
42.5227,28
42.7085,37
42.8942,20
43.0800,24
43.2657,28
43.4515,37
43.6372,36
43.8230,25
44.0088,29
44.1945,28
44.3803,40
44.5660,31
44.7518,46
44.9375,22
45.1233,18
45.3091,33
45.4948,20
45.6806,20
45.8663,26
46.0521,22
46.2378,26
46.4236,15
46.6093,30
46.7951,19
46.9809,21
47.1666,19
47.3524,30
47.5381,25
47.7239,24
47.9096,11
48.0954,24
48.2811,25
48.4669,22
48.6527,20
48.8384,29
49.0242,24
49.2099,22
49.3957,20
49.5814,20
49.7672,17
49.9530,28
50.1387,21
50.3245,23
50.5102,26
50.6960,28
50.8817,26
51.0675,19
51.2532,20
51.4390,26
51.6248,22
51.8105,20
51.9963,28
52.1820,21
52.3678,16
52.5535,22
52.7393,31
52.9250,23
53.1108,19
53.2966,31
53.4823,20
53.6681,20
53.8538,30
54.0396,24
54.2253,15
54.4111,28
54.5969,18
54.7826,14
54.9684,20
55.1541,22
55.3399,16
55.5256,19
55.7114,22
55.8971,24
56.0829,20
56.2687,22
56.4544,18
56.6402,22
56.8259,22
57.0117,23
57.1974,18
57.3832,22
57.5689,24
57.7547,29
57.9405,16
58.1262,26
58.3120,17
58.4977,21
58.6835,26
58.8692,18
59.0550,20
59.2408,21
59.4265,24
59.6123,15
59.7980,21
59.9838,20
60.0024,28

File: ML_20220720_23_SJD_4_LaB6-1min.csv
;,2THETA,
5.0000,99
5.1858,84
5.3715,89
5.5573,100
5.7430,71
5.9288,81
6.1145,68
6.3003,72
6.4860,58
6.6718,61
6.8576,67
7.0433,67
7.2291,60
7.4148,75
7.6006,63
7.7863,58
7.9721,75
8.1579,57
8.3436,62
8.5294,81
8.7151,83
8.9009,77
9.0866,77
9.2724,81
9.4581,80
9.6439,76
9.8297,88
10.0154,84
10.2012,88
10.3869,93
10.5727,86
10.7584,72
10.9442,91
11.1299,91
11.3157,81
11.5015,94
11.6872,77
11.8730,92
12.0587,73
12.2445,85
12.4302,94
12.6160,76
12.8018,73
12.9875,73
13.1733,75
13.3590,65
13.5448,63
13.7305,66
13.9163,59
14.1020,68
14.2878,66
14.4736,81
14.6593,59
14.8451,54
15.0308,56
15.2166,58
15.4023,48
15.5881,66
15.7738,60
15.9596,78
16.1454,64
16.3311,55
16.5169,65
16.7026,54
16.8884,62
17.0741,65
17.2599,65
17.4457,60
17.6314,56
17.8172,79
18.0029,43
18.1887,53
18.3744,48
18.5602,63
18.7459,65
18.9317,64
19.1175,54
19.3032,59
19.4890,55
19.6747,67
19.8605,64
20.0462,65
20.2320,56
20.4177,70
20.6035,74
20.7893,51
20.9750,68
21.1608,82
21.3465,174
21.5323,78
21.7180,67
21.9038,82
22.0896,52
22.2753,70
22.4611,80
22.6468,72
22.8326,75
23.0183,77
23.2041,80
23.3898,78
23.5756,61
23.7614,76
23.9471,65
24.1329,70
24.3186,93
24.5044,77
24.6901,69
24.8759,68
25.0616,69
25.2474,74
25.4332,73
25.6189,66
25.8047,82
25.9904,81
26.1762,75
26.3619,66
26.5477,73
26.7335,70
26.9192,59
27.1050,70
27.2907,94
27.4765,70
27.6622,71
27.8480,64
28.0337,60
28.2195,61
28.4053,67
28.5910,45
28.7768,54
28.9625,64
29.1483,62
29.3340,72
29.5198,52
29.7055,52
29.8913,70
30.0771,56
30.2628,73
30.4486,90
30.6343,47
30.8201,56
31.0058,42
31.1916,54
31.3774,57
31.5631,54
31.7489,51
31.9346,44
32.1204,44
32.3061,47
32.4919,56
32.6776,56
32.8634,54
33.0492,43
33.2349,45
33.4207,50
33.6064,40
33.7922,41
33.9779,44
34.1637,32
34.3494,56
34.5352,53
34.7210,49
34.9067,38
35.0925,43
35.2782,31
35.4640,45
35.6497,33
35.8355,33
36.0213,38
36.2070,47
36.3928,37
36.5785,28
36.7643,35
36.9500,29
37.1358,35
37.3215,38
37.5073,35
37.6931,34
37.8788,38
38.0646,31
38.2503,18
38.4361,25
38.6218,33
38.8076,36
38.9933,41
39.1791,25
39.3649,30
39.5506,28
39.7364,28
39.9221,28
40.1079,27
40.2936,20
40.4794,32
40.6652,30
40.8509,35
41.0367,37
41.2224,24
41.4082,21
41.5939,26
41.7797,35
41.9654,21
42.1512,31
42.3370,35
42.5227,30
42.7085,32
42.8942,32
43.0800,31
43.2657,31
43.4515,26
43.6372,31
43.8230,27
44.0088,19
44.1945,22
44.3803,29
44.5660,41
44.7518,20
44.9375,36
45.1233,23
45.3091,22
45.4948,31
45.6806,26
45.8663,25
46.0521,31
46.2378,32
46.4236,23
46.6093,25
46.7951,29
46.9809,27
47.1666,21
47.3524,16
47.5381,21
47.7239,13
47.9096,18
48.0954,17
48.2811,18
48.4669,30
48.6527,25
48.8384,32
49.0242,21
49.2099,22
49.3957,23
49.5814,32
49.7672,24
49.9530,23
50.1387,23
50.3245,19
50.5102,18
50.6960,23
50.8817,14
51.0675,21
51.2532,25
51.4390,32
51.6248,22
51.8105,18
51.9963,21
52.1820,27
52.3678,13
52.5535,29
52.7393,21
52.9250,17
53.1108,25
53.2966,25
53.4823,14
53.6681,22
53.8538,23
54.0396,26
54.2253,23
54.4111,22
54.5969,13
54.7826,19
54.9684,27
55.1541,22
55.3399,30
55.5256,27
55.7114,18
55.8971,26
56.0829,24
56.2687,19
56.4544,18
56.6402,24
56.8259,24
57.0117,21
57.1974,19
57.3832,20
57.5689,18
57.7547,24
57.9405,23
58.1262,21
58.3120,17
58.4977,24
58.6835,13
58.8692,23
59.0550,23
59.2408,26
59.4265,19
59.6123,20
59.7980,27
59.9838,25
60.0024,18

File: ML_20220720_24_SJD_4_LaB6-1min.uxd
; (content of file Y:\Sam\Apurva-07-20-2022\puck2\ML_20220720_24_SJD_0_LaB6-1min.raw)
_FILEVERSION = 3
_SAMPLE = ML_20220720_24_SJD_0_LaB6-1min
_+SAMPLE =
_SITE = USA
_USER = Administrator
_GONIOMETER_CODE = 20
; Goniometer : D8 theta/2theta, stage : Unknown
_ATTACHMENTS_CODE = 0
_GONIOMETER_RADIUS = 200.5
_FIXED_DIVSLIT = 0.6
_FIXED_SAMPLESLIT = 0
_SOLLER_SLITS = 2
_FIXED_DETSLIT = 9.55
_MONOCHROMATOR = 0
; Incident beam monochromator : None
_SOLLER_SLITS_2 = N
_THIN_FILM = N
_BETA_FILTER = Y
_FIXED_ANTISLIT = 5.89
_ANALYZER_CODE = 0
; Received beam analyzer : None
_DATEMEASURED = "25-Jul-2022 18:31:09"
_WL_UNIT = A
_WL1 = 1.5406
_WL2 = 1.54439
_WL3 = 1.39222
_WLRATIO = 0.5
_ANODE = Cu
_V4_INF_CREATOR = XRDWizard
_V4_INF_CREATOR_VERSION = V2.9.0.22
_V4_INF_WIZARD_VERSION = V2.9.0.22
_V4_INF_WIZARD_ADDINS = V2.9.0.22
_V4_INF_WIZARD_DOCTYPE = XRD
_V4_INF_OSUSER = McQueenLab
_V4_INF_USER = Administrator
_V4_INF_SITE = USA
_V4_INF_SAMPLEID = ML_20220720_24_SJD_0_LaB6-1min

; Data for range 1
_DRIVE = COUPLED
_STEPTIME = 4.23
_STEPSIZE = 0.0185756
_STEPMODE = C
_START = 5
_THETA = 2.5
_2THETA = 5
_KHI = 0
_PHI = 0
_X = 0
_Y = 0
_Z = 0
_DETECTOR = 5
; Detector type : Unknown
_DETECTORSLIT = unkn
_AUX1 = 0
_AUX2 = 0
_AUX3 = 0
_TIMESTARTED = 14
_TEMP_RATE = -1
_TEMP_DELAY = -1
_KV = 40
_MA = 40
_RANGE_WL = 1.5406
_3DPLANE = 0
_V4_ADDITIONALDETECTOR = 257
_V4_PSD2THETA = 3.3766
_V4_PSDCHANNEL1 = 0
_V4_PSDAPERTURE = 12.68
_V4_PSDTYPE = 5
_V4_PSDFIXED = 0
_V4_COUNTERS_MASK = 4096
_V4_DRIVES_MASK = 0
_V4_ENCODERS_MASK = 0
_2THETACOUNTS = 1
; 2THETA  PSD
   5.0000         85
   5.1858         82
   5.3715         76
   5.5573         69
   5.7430         74
   5.9288         84
   6.1145         84
   6.3003         76
   6.4860         64
   6.6718         61
   6.8576         58
   7.0433         54
   7.2291         70
   7.4148         52
   7.6006         56
   7.7863         50
   7.9721         72
   8.1579         62
   8.3436         64
   8.5294         98
   8.7151         71
   8.9009         89
   9.0866         92
   9.2724         96
   9.4581         83
   9.6439         74
   9.8297         84
  10.0154         93
  10.2012         96
  10.3869         93
  10.5727         81
  10.7584         81
  10.9442         89
  11.1299         83
  11.3157         87
  11.5015         86
  11.6872         69
  11.8730         92
  12.0587         90
  12.2445         85
  12.4302         81
  12.6160         81
  12.8018         75
  12.9875         78
  13.1733         81
  13.3590         69
  13.5448         81
  13.7305         68
  13.9163         74
  14.1020         64
  14.2878         68
  14.4736         65
  14.6593         60
  14.8451         53
  15.0308         56
  15.2166         64
  15.4023         64
  15.5881         63
  15.7738         73
  15.9596         59
  16.1454         63
  16.3311         63
  16.5169         59
  16.7026         62
  16.8884         50
  17.0741         61
  17.2599         64
  17.4457         63
  17.6314         58
  17.8172         59
  18.0029         59
  18.1887         52
  18.3744         64
  18.5602         64
  18.7459         64
  18.9317         65
  19.1175         50
  19.3032         61
  19.4890         67
  19.6747         63
  19.8605         77
  20.0462         55
  20.2320         66
  20.4177         52
  20.6035         72
  20.7893         59
  20.9750         80
  21.1608         76
  21.3465        174
  21.5323         78
  21.7180         80
  21.9038         75
  22.0896         93
  22.2753         70
  22.4611         72
  22.6468         63
  22.8326         70
  23.0183         77
  23.2041         64
  23.3898         66
  23.5756         67
  23.7614         84
  23.9471         83
  24.1329         86
  24.3186         78
  24.5044         75
  24.6901         71
  24.8759         68
  25.0616         75
  25.2474         64
  25.4332         62
  25.6189         51
  25.8047         87
  25.9904         70
  26.1762         68
  26.3619         65
  26.5477         78
  26.7335         71
  26.9192         76
  27.1050         81
  27.2907         71
  27.4765         80
  27.6622         74
  27.8480         55
  28.0337         63
  28.2195         56
  28.4053         54
  28.5910         52
  28.7768         54
  28.9625         70
  29.1483         69
  29.3340         64
  29.5198         57
  29.7055         59
  29.8913         53
  30.0771         63
  30.2628         71
  30.4486         96
  30.6343         66
  30.8201         55
  31.0058         63
  31.1916         56
  31.3774         50
  31.5631         54
  31.7489         36
  31.9346         41
  32.1204         43
  32.3061         54
  32.4919         45
  32.6776         45
  32.8634         51
  33.0492         43
  33.2349         49
  33.4207         47
  33.6064         37
  33.7922         31
  33.9779         44
  34.1637         38
  34.3494         39
  34.5352         46
  34.7210         43
  34.9067         45
  35.0925         48
  35.2782         30
  35.4640         42
  35.6497         28
  35.8355         44
  36.0213         36
  36.2070         42
  36.3928         30
  36.5785         30
  36.7643         33
  36.9500         35
  37.1358         44
  37.3215         38
  37.5073         42
  37.6931         22
  37.8788         26
  38.0646         33
  38.2503         33
  38.4361         28
  38.6218         33
  38.8076         29
  38.9933         26
  39.1791         38
  39.3649         23
  39.5506         35
  39.7364         37
  39.9221         34
  40.1079         31
  40.2936         29
  40.4794         24
  40.6652         27
  40.8509         26
  41.0367         32
  41.2224         23
  41.4082         38
  41.5939         33
  41.7797         28
  41.9654         25
  42.1512         24
  42.3370         27
  42.5227         22
  42.7085         30
  42.8942         24
  43.0800         29
  43.2657         32
  43.4515         34
  43.6372         37
  43.8230         20
  44.0088         26
  44.1945         21
  44.3803         26
  44.5660         32
  44.7518         27
  44.9375         25
  45.1233         24
  45.3091         20
  45.4948         21
  45.6806         29
  45.8663         23
  46.0521         32
  46.2378         23
  46.4236         24
  46.6093         18
  46.7951         30
  46.9809         25
  47.1666         20
  47.3524         25
  47.5381         29
  47.7239         22
  47.9096         23
  48.0954         25
  48.2811         15
  48.4669         23
  48.6527         21
  48.8384         23
  49.0242         26
  49.2099         21
  49.3957         25
  49.5814         14
  49.7672         24
  49.9530         25
  50.1387         25
  50.3245         14
  50.5102         30
  50.6960         13
  50.8817         19
  51.0675         19
  51.2532         23
  51.4390         24
  51.6248         29
  51.8105         28
  51.9963         20
  52.1820         25
  52.3678         24
  52.5535         14
  52.7393         15
  52.9250         25
  53.1108         18
  53.2966         26
  53.4823         14
  53.6681         22
  53.8538         20
  54.0396         23
  54.2253         16
  54.4111         24
  54.5969         20
  54.7826         23
  54.9684         20
  55.1541         18
  55.3399         28
  55.5256         24
  55.7114         27
  55.8971         18
  56.0829         22
  56.2687         22
  56.4544         29
  56.6402         21
  56.8259         16
  57.0117         18
  57.1974         26
  57.3832         16
  57.5689         19
  57.7547         19
  57.9405         16
  58.1262         23
  58.3120         21
  58.4977         16
  58.6835         15
  58.8692         16
  59.0550         18
  59.2408         24
  59.4265         25
  59.6123         18
  59.7980         20
  59.9838         24
  60.0024         22