Folder: xrd_clustering/notebooks/data/xrd_data (part 12)

File: ML_20220718_43_SJD_4_LaB6-2min.uxd
; (content of file Y:\Sam\Apurva-07-20-2022\puck4\ML_20220718_43_SJD_4_LaB6-2min.raw)
_FILEVERSION = 3
_SAMPLE = ML_20220718_43_SJD_4_LaB6-2min
_+SAMPLE =
_SITE = USA
_USER = Administrator
_GONIOMETER_CODE = 20
; Goniometer : D8 theta/2theta, stage : Unknown
_ATTACHMENTS_CODE = 0
_GONIOMETER_RADIUS = 200.5
_FIXED_DIVSLIT = 0.6
_FIXED_SAMPLESLIT = 0
_SOLLER_SLITS = 2
_FIXED_DETSLIT = 9.55
_MONOCHROMATOR = 0
; Incident beam monochromator : None
_SOLLER_SLITS_2 = N
_THIN_FILM = N
_BETA_FILTER = Y
_FIXED_ANTISLIT = 5.89
_ANALYZER_CODE = 0
; Received beam analyzer : None
_DATEMEASURED = "26-Jul-2022 12:10:54"
_WL_UNIT = A
_WL1 = 1.5406
_WL2 = 1.54439
_WL3 = 1.39222
_WLRATIO = 0.5
_ANODE = Cu
_V4_INF_CREATOR = XRDWizard
_V4_INF_CREATOR_VERSION = V2.9.0.22
_V4_INF_WIZARD_VERSION = V2.9.0.22
_V4_INF_WIZARD_ADDINS = V2.9.0.22
_V4_INF_WIZARD_DOCTYPE = XRD
_V4_INF_OSUSER = McQueenLab
_V4_INF_USER = Administrator
_V4_INF_SITE = USA
_V4_INF_SAMPLEID = ML_20220718_43_SJD_4_LaB6-2min

; Data for range 1
_DRIVE = COUPLED
_STEPTIME = 5.64
_STEPSIZE = 0.0185756
_STEPMODE = C
_START = 5
_THETA = 2.5
_2THETA = 5
_KHI = 0
_PHI = 0
_X = 0
_Y = 0
_Z = 0
_DETECTOR = 5
; Detector type : Unknown
_DETECTORSLIT = unkn
_AUX1 = 0
_AUX2 = 0
_AUX3 = 0
_TIMESTARTED = 15
_TEMP_RATE = -1
_TEMP_DELAY = -1
_KV = 40
_MA = 40
_RANGE_WL = 1.5406
_3DPLANE = 0
_V4_ADDITIONALDETECTOR = 257
_V4_PSD2THETA = 3.3682
_V4_PSDCHANNEL1 = 0
_V4_PSDAPERTURE = 12.68
_V4_PSDTYPE = 5
_V4_PSDFIXED = 0
_V4_COUNTERS_MASK = 4096
_V4_DRIVES_MASK = 0
_V4_ENCODERS_MASK = 0
_2THETACOUNTS = 1
; 2THETA  PSD
   5.0000        129
   5.1858        120
   5.3715        117
   5.5573        123
   5.7430        100
   5.9288        105
   6.1145         95
   6.3003         95
   6.4860         98
   6.6718        104
   6.8576         78
   7.0433         93
   7.2291         83
   7.4148         70
   7.6006         83
   7.7863         77
   7.9721         88
   8.1579        100
   8.3436        101
   8.5294        100
   8.7151        114
   8.9009         86
   9.0866        102
   9.2724        115
   9.4581        114
   9.6439        123
   9.8297        139
  10.0154        116
  10.2012        124
  10.3869        125
  10.5727        121
  10.7584        135
  10.9442        110
  11.1299        112
  11.3157        142
  11.5015        117
  11.6872        120
  11.8730        105
  12.0587        122
  12.2445        108
  12.4302        101
  12.6160        104
  12.8018         91
  12.9875        109
  13.1733        101
  13.3590         95
  13.5448        101
  13.7305         87
  13.9163         98
  14.1020         79
  14.2878         86
  14.4736        107
  14.6593         95
  14.8451         83
  15.0308         80
  15.2166         69
  15.4023         76
  15.5881         94
  15.7738        104
  15.9596         82
  16.1454         96
  16.3311         76
  16.5169         68
  16.7026         89
  16.8884         86
  17.0741         98
  17.2599         67
  17.4457         72
  17.6314         84
  17.8172         78
  18.0029         70
  18.1887         75
  18.3744         94
  18.5602         88
  18.7459         93
  18.9317         81
  19.1175         83
  19.3032         75
  19.4890         74
  19.6747         88
  19.8605         66
  20.0462        102
  20.2320         89
  20.4177        115
  20.6035        104
  20.7893         82
  20.9750         81
  21.1608        106
  21.3465        259
  21.5323        102
  21.7180        106
  21.9038         82
  22.0896        102
  22.2753         97
  22.4611         95
  22.6468        103
  22.8326         82
  23.0183        103
  23.2041         99
  23.3898         90
  23.5756        102
  23.7614        102
  23.9471        116
  24.1329        112
  24.3186        114
  24.5044         94
  24.6901        107
  24.8759         86
  25.0616         89
  25.2474         99
  25.4332        104
  25.6189        109
  25.8047         95
  25.9904        101
  26.1762         88
  26.3619         78
  26.5477         86
  26.7335         91
  26.9192         88
  27.1050         98
  27.2907        119
  27.4765        105
  27.6622         90
  27.8480         87
  28.0337         94
  28.2195         97
  28.4053         86
  28.5910         82
  28.7768         71
  28.9625         77
  29.1483         94
  29.3340         96
  29.5198         84
  29.7055         84
  29.8913         75
  30.0771         88
  30.2628         75
  30.4486        120
  30.6343         74
  30.8201         64
  31.0058         69
  31.1916         60
  31.3774         77
  31.5631         57
  31.7489         62
  31.9346         75
  32.1204         58
  32.3061         60
  32.4919         73
  32.6776         76
  32.8634         62
  33.0492         49
  33.2349         63
  33.4207         60
  33.6064         48
  33.7922         55
  33.9779         55
  34.1637         67
  34.3494         64
  34.5352         58
  34.7210         78
  34.9067         56
  35.0925         47
  35.2782         56
  35.4640         51
  35.6497         54
  35.8355         48
  36.0213         47
  36.2070         50
  36.3928         46
  36.5785         39
  36.7643         34
  36.9500         49
  37.1358         44
  37.3215         32
  37.5073         62
  37.6931         46
  37.8788         51
  38.0646         44
  38.2503         51
  38.4361         45
  38.6218         38
  38.8076         40
  38.9933         46
  39.1791         46
  39.3649         50
  39.5506         39
  39.7364         39
  39.9221         40
  40.1079         28
  40.2936         42
  40.4794         36
  40.6652         35
  40.8509         34
  41.0367         34
  41.2224         36
  41.4082         46
  41.5939         41
  41.7797         44
  41.9654         40
  42.1512         48
  42.3370         35
  42.5227         47
  42.7085         29
  42.8942         32
  43.0800         41
  43.2657         35
  43.4515         41
  43.6372         51
  43.8230         29
  44.0088         35
  44.1945         43
  44.3803         34
  44.5660         38
  44.7518         36
  44.9375         26
  45.1233         37
  45.3091         34
  45.4948         37
  45.6806         25
  45.8663         39
  46.0521         34
  46.2378         39
  46.4236         30
  46.6093         30
  46.7951         25
  46.9809         29
  47.1666         42
  47.3524         26
  47.5381         22
  47.7239         35
  47.9096         38
  48.0954         42
  48.2811         27
  48.4669         30
  48.6527         38
  48.8384         28
  49.0242         38
  49.2099         29
  49.3957         36
  49.5814         33
  49.7672         29
  49.9530         29
  50.1387         30
  50.3245         25
  50.5102         38
  50.6960         24
  50.8817         30
  51.0675         27
  51.2532         20
  51.4390         25
  51.6248         30
  51.8105         41
  51.9963         33
  52.1820         30
  52.3678         25
  52.5535         34
  52.7393         22
  52.9250         25
  53.1108         31
  53.2966         26
  53.4823         24
  53.6681         36
  53.8538         31
  54.0396         33
  54.2253         38
  54.4111         25
  54.5969         28
  54.7826         34
  54.9684         23
  55.1541         39
  55.3399         24
  55.5256         28
  55.7114         33
  55.8971         27
  56.0829         29
  56.2687         26
  56.4544         25
  56.6402         29
  56.8259         37
  57.0117         39
  57.1974         18
  57.3832         33
  57.5689         26
  57.7547         26
  57.9405         28
  58.1262         20
  58.3120         26
  58.4977         25
  58.6835         25
  58.8692         24
  59.0550         23
  59.2408         24
  59.4265         29
  59.6123         25
  59.7980         28
  59.9838         31
  60.0024         26

File: ML_20220718_43_SJD_4_LaB6-4min.csv
;,2THETA,
5.0000,280
5.1858,249
5.3715,263
5.5573,232
5.7430,236
5.9288,210
6.1145,201
6.3003,183
6.4860,177
6.6718,153
6.8576,153
7.0433,149
7.2291,154
7.4148,166
7.6006,166
7.7863,183
7.9721,187
8.1579,173
8.3436,188
8.5294,178
8.7151,203
8.9009,217
9.0866,206
9.2724,241
9.4581,233
9.6439,233
9.8297,250
10.0154,259
10.2012,220
10.3869,211
10.5727,260
10.7584,221
10.9442,235
11.1299,239
11.3157,247
11.5015,223
11.6872,248
11.8730,211
12.0587,211
12.2445,224
12.4302,228
12.6160,209
12.8018,211
12.9875,205
13.1733,190
13.3590,194
13.5448,197
13.7305,173
13.9163,199
14.1020,178
14.2878,188
14.4736,151
14.6593,155
14.8451,173
15.0308,156
15.2166,147
15.4023,150
15.5881,142
15.7738,149
15.9596,166
16.1454,165
16.3311,166
16.5169,168
16.7026,168
16.8884,170
17.0741,149
17.2599,148
17.4457,166
17.6314,196
17.8172,154
18.0029,173
18.1887,155
18.3744,160
18.5602,188
18.7459,153
18.9317,172
19.1175,148
19.3032,182
19.4890,176
19.6747,182
19.8605,171
20.0462,168
20.2320,187
20.4177,163
20.6035,172
20.7893,203
20.9750,214
21.1608,230
21.3465,514
21.5323,173
21.7180,189
21.9038,202
22.0896,159
22.2753,193
22.4611,203
22.6468,206
22.8326,174
23.0183,197
23.2041,195
23.3898,222
23.5756,220
23.7614,218
23.9471,217
24.1329,182
24.3186,231
24.5044,215
24.6901,208
24.8759,213
25.0616,177
25.2474,186
25.4332,194
25.6189,211
25.8047,185
25.9904,201
26.1762,202
26.3619,197
26.5477,189
26.7335,185
26.9192,188
27.1050,177
27.2907,192
27.4765,160
27.6622,173
27.8480,183
28.0337,204
28.2195,186
28.4053,186
28.5910,164
28.7768,177
28.9625,139
29.1483,170
29.3340,154
29.5198,148
29.7055,141
29.8913,144
30.0771,166
30.2628,167
30.4486,225
30.6343,153
30.8201,155
31.0058,145
31.1916,142
31.3774,132
31.5631,160
31.7489,131
31.9346,145
32.1204,122
32.3061,128
32.4919,165
32.6776,128
32.8634,139
33.0492,105
33.2349,152
33.4207,105
33.6064,118
33.7922,128
33.9779,115
34.1637,85
34.3494,115
34.5352,121
34.7210,151
34.9067,118
35.0925,115
35.2782,101
35.4640,97
35.6497,85
35.8355,93
36.0213,113
36.2070,96
36.3928,107
36.5785,91
36.7643,86
36.9500,87
37.1358,105
37.3215,91
37.5073,106
37.6931,87
37.8788,78
38.0646,74
38.2503,71
38.4361,80
38.6218,90
38.8076,73
38.9933,88
39.1791,75
39.3649,80
39.5506,69
39.7364,72
39.9221,68
40.1079,84
40.2936,67
40.4794,71
40.6652,82
40.8509,65
41.0367,83
41.2224,97
41.4082,80
41.5939,74
41.7797,81
41.9654,76
42.1512,86
42.3370,72
42.5227,66
42.7085,84
42.8942,59
43.0800,74
43.2657,103
43.4515,67
43.6372,101
43.8230,82
44.0088,78
44.1945,79
44.3803,72
44.5660,80
44.7518,83
44.9375,79
45.1233,69
45.3091,62
45.4948,75
45.6806,72
45.8663,72
46.0521,77
46.2378,64
46.4236,76
46.6093,70
46.7951,70
46.9809,63
47.1666,62
47.3524,58
47.5381,60
47.7239,69
47.9096,60
48.0954,59
48.2811,69
48.4669,55
48.6527,68
48.8384,78
49.0242,71
49.2099,60
49.3957,52
49.5814,54
49.7672,56
49.9530,63
50.1387,59
50.3245,64
50.5102,45
50.6960,65
50.8817,60
51.0675,58
51.2532,63
51.4390,74
51.6248,59
51.8105,72
51.9963,76
52.1820,56
52.3678,55
52.5535,54
52.7393,61
52.9250,67
53.1108,47
53.2966,46
53.4823,57
53.6681,82
53.8538,50
54.0396,64
54.2253,67
54.4111,63
54.5969,64
54.7826,61
54.9684,58
55.1541,57
55.3399,57
55.5256,50
55.7114,64
55.8971,51
56.0829,67
56.2687,59
56.4544,62
56.6402,67
56.8259,52
57.0117,57
57.1974,67
57.3832,59
57.5689,49
57.7547,50
57.9405,61
58.1262,57
58.3120,50
58.4977,51
58.6835,51
58.8692,52
59.0550,57
59.2408,57
59.4265,69
59.6123,67
59.7980,54
59.9838,46
60.0024,44

File: ML_20220718_44_SJD_4_LaB6-1min.csv
;,2THETA,
5.0000,89
5.1858,98
5.3715,98
5.5573,94
5.7430,76
5.9288,87
6.1145,78
6.3003,60
6.4860,63
6.6718,61
6.8576,59
7.0433,50
7.2291,57
7.4148,54
7.6006,63
7.7863,82
7.9721,69
8.1579,80
8.3436,63
8.5294,44
8.7151,70
8.9009,75
9.0866,77
9.2724,79
9.4581,74
9.6439,88
9.8297,88
10.0154,87
10.2012,92
10.3869,97
10.5727,87
10.7584,73
10.9442,90
11.1299,77
11.3157,114
11.5015,88
11.6872,82
11.8730,80
12.0587,71
12.2445,90
12.4302,87
12.6160,66
12.8018,71
12.9875,80
13.1733,69
13.3590,75
13.5448,78
13.7305,73
13.9163,74
14.1020,66
14.2878,63
14.4736,55
14.6593,64
14.8451,67
15.0308,57
15.2166,71
15.4023,61
15.5881,65
15.7738,49
15.9596,66
16.1454,60
16.3311,47
16.5169,69
16.7026,53
16.8884,49
17.0741,57
17.2599,71
17.4457,69
17.6314,57
17.8172,68
18.0029,61
18.1887,54
18.3744,61
18.5602,60
18.7459,76
18.9317,74
19.1175,66
19.3032,57
19.4890,80
19.6747,56
19.8605,65
20.0462,63
20.2320,60
20.4177,64
20.6035,72
20.7893,63
20.9750,80
21.1608,77
21.3465,177
21.5323,65
21.7180,71
21.9038,71
22.0896,56
22.2753,58
22.4611,68
22.6468,70
22.8326,64
23.0183,67
23.2041,72
23.3898,73
23.5756,54
23.7614,64
23.9471,72
24.1329,72
24.3186,84
24.5044,82
24.6901,75
24.8759,64
25.0616,71
25.2474,85
25.4332,67
25.6189,72
25.8047,77
25.9904,85
26.1762,62
26.3619,77
26.5477,66
26.7335,64
26.9192,70
27.1050,72
27.2907,74
27.4765,72
27.6622,69
27.8480,67
28.0337,70
28.2195,71
28.4053,75
28.5910,68
28.7768,49
28.9625,54
29.1483,49
29.3340,62
29.5198,45
29.7055,64
29.8913,56
30.0771,70
30.2628,55
30.4486,92
30.6343,58
30.8201,52
31.0058,64
31.1916,60
31.3774,50
31.5631,55
31.7489,50
31.9346,56
32.1204,48
32.3061,45
32.4919,45
32.6776,45
32.8634,46
33.0492,48
33.2349,40
33.4207,41
33.6064,46
33.7922,36
33.9779,51
34.1637,41
34.3494,45
34.5352,40
34.7210,47
34.9067,43
35.0925,38
35.2782,43
35.4640,25
35.6497,36
35.8355,38
36.0213,24
36.2070,42
36.3928,41
36.5785,29
36.7643,24
36.9500,34
37.1358,31
37.3215,31
37.5073,38
37.6931,34
37.8788,26
38.0646,31
38.2503,28
38.4361,31
38.6218,30
38.8076,25
38.9933,36
39.1791,22
39.3649,36
39.5506,27
39.7364,31
39.9221,31
40.1079,30
40.2936,24
40.4794,26
40.6652,19
40.8509,34
41.0367,33
41.2224,25
41.4082,28
41.5939,23
41.7797,34
41.9654,26
42.1512,27
42.3370,23
42.5227,21
42.7085,33
42.8942,17
43.0800,26
43.2657,31
43.4515,29
43.6372,38
43.8230,19
44.0088,13
44.1945,31
44.3803,25
44.5660,33
44.7518,22
44.9375,27
45.1233,30
45.3091,25
45.4948,25
45.6806,25
45.8663,26
46.0521,19
46.2378,21
46.4236,23
46.6093,25
46.7951,19
46.9809,28
47.1666,26
47.3524,18
47.5381,24
47.7239,25
47.9096,23
48.0954,20
48.2811,21
48.4669,26
48.6527,27
48.8384,26
49.0242,28
49.2099,31
49.3957,26
49.5814,25
49.7672,24
49.9530,14
50.1387,29
50.3245,23
50.5102,22
50.6960,23
50.8817,14
51.0675,22
51.2532,22
51.4390,27
51.6248,18
51.8105,22
51.9963,26
52.1820,25
52.3678,19
52.5535,17
52.7393,21
52.9250,23
53.1108,24
53.2966,14
53.4823,20
53.6681,26
53.8538,26
54.0396,30
54.2253,27
54.4111,19
54.5969,13
54.7826,27
54.9684,20
55.1541,12
55.3399,25
55.5256,12
55.7114,19
55.8971,15
56.0829,22
56.2687,29
56.4544,21
56.6402,20
56.8259,17
57.0117,20
57.1974,24
57.3832,20
57.5689,19
57.7547,30
57.9405,17
58.1262,16
58.3120,18
58.4977,17
58.6835,15
58.8692,31
59.0550,12
59.2408,15
59.4265,19
59.6123,21
59.7980,13
59.9838,15
60.0024,21

File: ML_20220718_44_SJD_4_LaB6-2min.uxd
; (content of file Y:\Sam\Apurva-07-20-2022\puck4\ML_20220718_44_SJD_4_LaB6-2min.raw)
_FILEVERSION = 3
_SAMPLE = ML_20220718_44_SJD_4_LaB6-2min
_+SAMPLE =
_SITE = USA
_USER = Administrator
_GONIOMETER_CODE = 20
; Goniometer : D8 theta/2theta, stage : Unknown
_ATTACHMENTS_CODE = 0
_GONIOMETER_RADIUS = 200.5
_FIXED_DIVSLIT = 0.6
_FIXED_SAMPLESLIT = 0
_SOLLER_SLITS = 2
_FIXED_DETSLIT = 9.55
_MONOCHROMATOR = 0
; Incident beam monochromator : None
_SOLLER_SLITS_2 = N
_THIN_FILM = N
_BETA_FILTER = Y
_FIXED_ANTISLIT = 5.89
_ANALYZER_CODE = 0
; Received beam analyzer : None
_DATEMEASURED = "26-Jul-2022 12:13:17"
_WL_UNIT = A
_WL1 = 1.5406
_WL2 = 1.54439
_WL3 = 1.39222
_WLRATIO = 0.5
_ANODE = Cu
_V4_INF_CREATOR = XRDWizard
_V4_INF_CREATOR_VERSION = V2.9.0.22
_V4_INF_WIZARD_VERSION = V2.9.0.22
_V4_INF_WIZARD_ADDINS = V2.9.0.22
_V4_INF_WIZARD_DOCTYPE = XRD
_V4_INF_OSUSER = McQueenLab
_V4_INF_USER = Administrator
_V4_INF_SITE = USA
_V4_INF_SAMPLEID = ML_20220718_44_SJD_4_LaB6-2min

; Data for range 1
_DRIVE = COUPLED
_STEPTIME = 5.64
_STEPSIZE = 0.0185756
_STEPMODE = C
_START = 5
_THETA = 2.5
_2THETA = 5
_KHI = 0
_PHI = 0
_X = 0
_Y = 0
_Z = 0
_DETECTOR = 5
; Detector type : Unknown
_DETECTORSLIT = unkn
_AUX1 = 0
_AUX2 = 0
_AUX3 = 0
_TIMESTARTED = 14
_TEMP_RATE = -1
_TEMP_DELAY = -1
_KV = 40
_MA = 40
_RANGE_WL = 1.5406
_3DPLANE = 0
_V4_ADDITIONALDETECTOR = 257
_V4_PSD2THETA = 3.4135
_V4_PSDCHANNEL1 = 0
_V4_PSDAPERTURE = 12.68
_V4_PSDTYPE = 5
_V4_PSDFIXED = 0
_V4_COUNTERS_MASK = 4096
_V4_DRIVES_MASK = 0
_V4_ENCODERS_MASK = 0
_2THETACOUNTS = 1
; 2THETA  PSD
   5.0000        132
   5.1858        117
   5.3715        123
   5.5573        116
   5.7430        109
   5.9288        114
   6.1145         94
   6.3003         80
   6.4860         85
   6.6718         82
   6.8576         80
   7.0433         75
   7.2291         85
   7.4148         76
   7.6006         78
   7.7863         86
   7.9721         79
   8.1579         94
   8.3436        108
   8.5294        111
   8.7151        111
   8.9009        112
   9.0866         96
   9.2724         96
   9.4581        112
   9.6439        122
   9.8297        112
  10.0154        126
  10.2012        135
  10.3869        119
  10.5727        120
  10.7584        114
  10.9442        106
  11.1299        114
  11.3157        129
  11.5015        148
  11.6872        115
  11.8730        102
  12.0587        108
  12.2445        125
  12.4302        111
  12.6160         98
  12.8018        121
  12.9875        111
  13.1733        111
  13.3590        114
  13.5448        113
  13.7305         94
  13.9163         92
  14.1020         97
  14.2878         90
  14.4736         67
  14.6593         98
  14.8451         91
  15.0308         84
  15.2166         95
  15.4023        108
  15.5881         74
  15.7738         78
  15.9596         72
  16.1454         75
  16.3311         75
  16.5169         64
  16.7026         86
  16.8884         76
  17.0741         81
  17.2599         84
  17.4457         62
  17.6314         79
  17.8172         70
  18.0029         74
  18.1887         99
  18.3744         84
  18.5602         86
  18.7459         91
  18.9317         84
  19.1175         96
  19.3032         79
  19.4890         81
  19.6747         96
  19.8605        116
  20.0462         87
  20.2320        101
  20.4177        101
  20.6035        100
  20.7893         94
  20.9750         86
  21.1608        111
  21.3465        245
  21.5323        103
  21.7180         87
  21.9038         85
  22.0896        103
  22.2753         94
  22.4611         80
  22.6468         85
  22.8326        101
  23.0183         96
  23.2041        108
  23.3898         94
  23.5756         96
  23.7614         97
  23.9471        105
  24.1329        100
  24.3186        113
  24.5044         93
  24.6901        109
  24.8759        101
  25.0616         88
  25.2474         94
  25.4332        105
  25.6189        104
  25.8047        102
  25.9904        105
  26.1762        112
  26.3619         82
  26.5477         97
  26.7335         89
  26.9192        100
  27.1050         80
  27.2907         95
  27.4765         96
  27.6622         95
  27.8480         68
  28.0337         68
  28.2195         77
  28.4053         76
  28.5910         80
  28.7768         83
  28.9625         88
  29.1483         80
  29.3340         72
  29.5198         83
  29.7055         84
  29.8913         77
  30.0771         68
  30.2628         91
  30.4486        110
  30.6343         78
  30.8201         59
  31.0058         87
  31.1916         67
  31.3774         78
  31.5631         61
  31.7489         56
  31.9346         70
  32.1204         55
  32.3061         72
  32.4919         80
  32.6776         58
  32.8634         64
  33.0492         61
  33.2349         64
  33.4207         55
  33.6064         62
  33.7922         50
  33.9779         61
  34.1637         60
  34.3494         47
  34.5352         59
  34.7210         69
  34.9067         56
  35.0925         61
  35.2782         50
  35.4640         62
  35.6497         48
  35.8355         49
  36.0213         57
  36.2070         51
  36.3928         40
  36.5785         54
  36.7643         51
  36.9500         54
  37.1358         56
  37.3215         49
  37.5073         44
  37.6931         51
  37.8788         49
  38.0646         54
  38.2503         39
  38.4361         42
  38.6218         42
  38.8076         57
  38.9933         57
  39.1791         37
  39.3649         35
  39.5506         45
  39.7364         38
  39.9221         35
  40.1079         38
  40.2936         33
  40.4794         37
  40.6652         38
  40.8509         30
  41.0367         48
  41.2224         28
  41.4082         42
  41.5939         35
  41.7797         35
  41.9654         45
  42.1512         36
  42.3370         46
  42.5227         37
  42.7085         34
  42.8942         38
  43.0800         42
  43.2657         40
  43.4515         37
  43.6372         47
  43.8230         29
  44.0088         44
  44.1945         37
  44.3803         33
  44.5660         41
  44.7518         37
  44.9375         29
  45.1233         22
  45.3091         41
  45.4948         25
  45.6806         33
  45.8663         39
  46.0521         27
  46.2378         28
  46.4236         21
  46.6093         30
  46.7951         32
  46.9809         29
  47.1666         38
  47.3524         32
  47.5381         29
  47.7239         38
  47.9096         32
  48.0954         43
  48.2811         31
  48.4669         29
  48.6527         30
  48.8384         38
  49.0242         36
  49.2099         23
  49.3957         25
  49.5814         37
  49.7672         38
  49.9530         33
  50.1387         31
  50.3245         39
  50.5102         31
  50.6960         26
  50.8817         38
  51.0675         39
  51.2532         27
  51.4390         42
  51.6248         41
  51.8105         30
  51.9963         33
  52.1820         36
  52.3678         28
  52.5535         28
  52.7393         19
  52.9250         30
  53.1108         32
  53.2966         28
  53.4823         29
  53.6681         31
  53.8538         34
  54.0396         36
  54.2253         46
  54.4111         23
  54.5969         30
  54.7826         33
  54.9684         21
  55.1541         21
  55.3399         31
  55.5256         29
  55.7114         32
  55.8971         39
  56.0829         33
  56.2687         35
  56.4544         29
  56.6402         34
  56.8259         23
  57.0117         24
  57.1974         26
  57.3832         30
  57.5689         26
  57.7547         34
  57.9405         29
  58.1262         30
  58.3120         27
  58.4977         31
  58.6835         26
  58.8692         35
  59.0550         23
  59.2408         25
  59.4265         22
  59.6123         22
  59.7980         26
  59.9838         24
  60.0024         29