Folder: xrd_clustering/notebooks/data/xrd_data (part 3)

File: ML_20220718_14_SJD_4_LaB6-2min.uxd
; (content of file Y:\Sam\Apurva-07-20-2022\puck4\ML_20220718_14_SJD_0_LaB6-2min.raw)
_FILEVERSION = 3
_SAMPLE = ML_20220718_14_SJD_0_LaB6-2min
_+SAMPLE =
_SITE = USA
_USER = Administrator
_GONIOMETER_CODE = 20
; Goniometer : D8 theta/2theta, stage : Unknown
_ATTACHMENTS_CODE = 0
_GONIOMETER_RADIUS = 200.5
_FIXED_DIVSLIT = 0.6
_FIXED_SAMPLESLIT = 0
_SOLLER_SLITS = 2
_FIXED_DETSLIT = 9.55
_MONOCHROMATOR = 0
; Incident beam monochromator : None
_SOLLER_SLITS_2 = N
_THIN_FILM = N
_BETA_FILTER = Y
_FIXED_ANTISLIT = 5.89
_ANALYZER_CODE = 0
; Received beam analyzer : None
_DATEMEASURED = "26-Jul-2022 09:51:52"
_WL_UNIT = A
_WL1 = 1.5406
_WL2 = 1.54439
_WL3 = 1.39222
_WLRATIO = 0.5
_ANODE = Cu
_V4_INF_CREATOR = XRDWizard
_V4_INF_CREATOR_VERSION = V2.9.0.22
_V4_INF_WIZARD_VERSION = V2.9.0.22
_V4_INF_WIZARD_ADDINS = V2.9.0.22
_V4_INF_WIZARD_DOCTYPE = XRD
_V4_INF_OSUSER = McQueenLab
_V4_INF_USER = Administrator
_V4_INF_SITE = USA
_V4_INF_SAMPLEID = ML_20220718_14_SJD_0_LaB6-2min

; Data for range 1
_DRIVE = COUPLED
_STEPTIME = 5.64
_STEPSIZE = 0.0185756
_STEPMODE = C
_START = 5
_THETA = 2.5
_2THETA = 5
_KHI = 0
_PHI = 0
_X = 0
_Y = 0
_Z = 0
_DETECTOR = 5
; Detector type : Unknown
_DETECTORSLIT = unkn
_AUX1 = 0
_AUX2 = 0
_AUX3 = 0
_TIMESTARTED = 15
_TEMP_RATE = -1
_TEMP_DELAY = -1
_KV = 40
_MA = 40
_RANGE_WL = 1.5406
_3DPLANE = 0
_V4_ADDITIONALDETECTOR = 257
_V4_PSD2THETA = 3.371
_V4_PSDCHANNEL1 = 0
_V4_PSDAPERTURE = 12.68
_V4_PSDTYPE = 5
_V4_PSDFIXED = 0
_V4_COUNTERS_MASK = 4096
_V4_DRIVES_MASK = 0
_V4_ENCODERS_MASK = 0
_2THETACOUNTS = 1
; 2THETA  PSD
   5.0000        130
   5.1858        119
   5.3715        130
   5.5573        118
   5.7430         92
   5.9288         97
   6.1145        111
   6.3003         96
   6.4860         78
   6.6718         98
   6.8576         90
   7.0433         86
   7.2291         69
   7.4148         83
   7.6006        103
   7.7863         97
   7.9721         81
   8.1579         78
   8.3436         88
   8.5294         90
   8.7151         93
   8.9009        101
   9.0866        118
   9.2724        125
   9.4581         98
   9.6439        110
   9.8297        105
  10.0154        110
  10.2012        131
  10.3869        112
  10.5727        109
  10.7584        126
  10.9442        105
  11.1299        119
  11.3157         99
  11.5015        109
  11.6872        124
  11.8730        118
  12.0587        104
  12.2445        128
  12.4302         93
  12.6160        111
  12.8018        108
  12.9875         99
  13.1733         98
  13.3590         98
  13.5448         93
  13.7305         82
  13.9163         78
  14.1020         88
  14.2878         80
  14.4736         65
  14.6593         82
  14.8451         76
  15.0308         78
  15.2166         77
  15.4023         95
  15.5881         87
  15.7738         70
  15.9596         78
  16.1454         93
  16.3311         88
  16.5169         81
  16.7026         76
  16.8884         76
  17.0741         91
  17.2599         77
  17.4457         96
  17.6314         91
  17.8172         80
  18.0029         81
  18.1887         92
  18.3744         76
  18.5602         90
  18.7459         77
  18.9317         82
  19.1175         74
  19.3032         94
  19.4890         76
  19.6747         70
  19.8605         87
  20.0462         77
  20.2320         86
  20.4177         86
  20.6035        101
  20.7893         92
  20.9750         97
  21.1608        108
  21.3465        238
  21.5323        108
  21.7180         91
  21.9038        118
  22.0896         88
  22.2753         82
  22.4611        104
  22.6468         99
  22.8326         90
  23.0183        100
  23.2041         93
  23.3898         88
  23.5756        101
  23.7614        108
  23.9471        101
  24.1329         91
  24.3186        109
  24.5044         94
  24.6901        100
  24.8759        115
  25.0616        112
  25.2474         98
  25.4332         94
  25.6189         86
  25.8047         99
  25.9904         99
  26.1762        106
  26.3619        114
  26.5477         83
  26.7335        103
  26.9192         94
  27.1050        101
  27.2907        126
  27.4765        107
  27.6622         86
  27.8480         89
  28.0337         78
  28.2195         64
  28.4053         80
  28.5910         86
  28.7768         74
  28.9625         88
  29.1483         92
  29.3340         81
  29.5198         87
  29.7055         67
  29.8913         91
  30.0771         69
  30.2628         81
  30.4486        115
  30.6343         75
  30.8201         77
  31.0058         64
  31.1916         77
  31.3774         69
  31.5631         72
  31.7489         71
  31.9346         89
  32.1204         57
  32.3061         69
  32.4919         75
  32.6776         68
  32.8634         73
  33.0492         62
  33.2349         64
  33.4207         58
  33.6064         53
  33.7922         60
  33.9779         55
  34.1637         60
  34.3494         57
  34.5352         57
  34.7210         65
  34.9067         71
  35.0925         38
  35.2782         51
  35.4640         55
  35.6497         48
  35.8355         50
  36.0213         49
  36.2070         37
  36.3928         43
  36.5785         65
  36.7643         56
  36.9500         55
  37.1358         55
  37.3215         43
  37.5073         58
  37.6931         46
  37.8788         54
  38.0646         40
  38.2503         43
  38.4361         46
  38.6218         43
  38.8076         40
  38.9933         33
  39.1791         35
  39.3649         33
  39.5506         42
  39.7364         39
  39.9221         38
  40.1079         35
  40.2936         47
  40.4794         45
  40.6652         36
  40.8509         46
  41.0367         41
  41.2224         35
  41.4082         42
  41.5939         37
  41.7797         34
  41.9654         43
  42.1512         40
  42.3370         35
  42.5227         31
  42.7085         36
  42.8942         38
  43.0800         42
  43.2657         35
  43.4515         50
  43.6372         48
  43.8230         35
  44.0088         41
  44.1945         34
  44.3803         33
  44.5660         41
  44.7518         30
  44.9375         31
  45.1233         36
  45.3091         31
  45.4948         28
  45.6806         34
  45.8663         29
  46.0521         25
  46.2378         33
  46.4236         31
  46.6093         27
  46.7951         25
  46.9809         33
  47.1666         28
  47.3524         36
  47.5381         32
  47.7239         28
  47.9096         34
  48.0954         35
  48.2811         28
  48.4669         21
  48.6527         24
  48.8384         31
  49.0242         42
  49.2099         47
  49.3957         33
  49.5814         29
  49.7672         19
  49.9530         24
  50.1387         29
  50.3245         27
  50.5102         37
  50.6960         35
  50.8817         30
  51.0675         27
  51.2532         23
  51.4390         37
  51.6248         37
  51.8105         34
  51.9963         33
  52.1820         35
  52.3678         37
  52.5535         29
  52.7393         22
  52.9250         33
  53.1108         32
  53.2966         29
  53.4823         29
  53.6681         23
  53.8538         29
  54.0396         34
  54.2253         32
  54.4111         24
  54.5969         19
  54.7826         30
  54.9684         25
  55.1541         32
  55.3399         27
  55.5256         25
  55.7114         17
  55.8971         31
  56.0829         35
  56.2687         29
  56.4544         27
  56.6402         25
  56.8259         21
  57.0117         18
  57.1974         32
  57.3832         18
  57.5689         18
  57.7547         27
  57.9405         29
  58.1262         31
  58.3120         37
  58.4977         21
  58.6835         32
  58.8692         33
  59.0550         25
  59.2408         26
  59.4265         29
  59.6123         25
  59.7980         24
  59.9838         26
  60.0024         33

File: ML_20220718_15_SJD_4_LaB6-2min.uxd
; (content of file Y:\Sam\Apurva-07-20-2022\puck4\ML_20220718_15_SJD_0_LaB6-2min.raw)
_FILEVERSION = 3
_SAMPLE = ML_20220718_15_SJD_0_LaB6-2min
_+SAMPLE =
_SITE = USA
_USER = Administrator
_GONIOMETER_CODE = 20
; Goniometer : D8 theta/2theta, stage : Unknown
_ATTACHMENTS_CODE = 0
_GONIOMETER_RADIUS = 200.5
_FIXED_DIVSLIT = 0.6
_FIXED_SAMPLESLIT = 0
_SOLLER_SLITS = 2
_FIXED_DETSLIT = 9.55
_MONOCHROMATOR = 0
; Incident beam monochromator : None
_SOLLER_SLITS_2 = N
_THIN_FILM = N
_BETA_FILTER = Y
_FIXED_ANTISLIT = 5.89
_ANALYZER_CODE = 0
; Received beam analyzer : None
_DATEMEASURED = "26-Jul-2022 09:49:29"
_WL_UNIT = A
_WL1 = 1.5406
_WL2 = 1.54439
_WL3 = 1.39222
_WLRATIO = 0.5
_ANODE = Cu
_V4_INF_CREATOR = XRDWizard
_V4_INF_CREATOR_VERSION = V2.9.0.22
_V4_INF_WIZARD_VERSION = V2.9.0.22
_V4_INF_WIZARD_ADDINS = V2.9.0.22
_V4_INF_WIZARD_DOCTYPE = XRD
_V4_INF_OSUSER = McQueenLab
_V4_INF_USER = Administrator
_V4_INF_SITE = USA
_V4_INF_SAMPLEID = ML_20220718_15_SJD_0_LaB6-2min

; Data for range 1
_DRIVE = COUPLED
_STEPTIME = 5.64
_STEPSIZE = 0.0185756
_STEPMODE = C
_START = 5
_THETA = 2.5
_2THETA = 5
_KHI = 0
_PHI = 0
_X = 0
_Y = 0
_Z = 0
_DETECTOR = 5
; Detector type : Unknown
_DETECTORSLIT = unkn
_AUX1 = 0
_AUX2 = 0
_AUX3 = 0
_TIMESTARTED = 15
_TEMP_RATE = -1
_TEMP_DELAY = -1
_KV = 40
_MA = 40
_RANGE_WL = 1.5406
_3DPLANE = 0
_V4_ADDITIONALDETECTOR = 257
_V4_PSD2THETA = 3.3706
_V4_PSDCHANNEL1 = 0
_V4_PSDAPERTURE = 12.68
_V4_PSDTYPE = 5
_V4_PSDFIXED = 0
_V4_COUNTERS_MASK = 4096
_V4_DRIVES_MASK = 0
_V4_ENCODERS_MASK = 0
_2THETACOUNTS = 1
; 2THETA  PSD
   5.0000        161
   5.1858        141
   5.3715        116
   5.5573         99
   5.7430         96
   5.9288        102
   6.1145         88
   6.3003         72
   6.4860        102
   6.6718         76
   6.8576         89
   7.0433         85
   7.2291         79
   7.4148         93
   7.6006         84
   7.7863         91
   7.9721         92
   8.1579         83
   8.3436         99
   8.5294         85
   8.7151         92
   8.9009         98
   9.0866         98
   9.2724        111
   9.4581         99
   9.6439        121
   9.8297        105
  10.0154        106
  10.2012        137
  10.3869        106
  10.5727        113
  10.7584        122
  10.9442        126
  11.1299        103
  11.3157        109
  11.5015         98
  11.6872        122
  11.8730        106
  12.0587        108
  12.2445        111
  12.4302        113
  12.6160        111
  12.8018         86
  12.9875        103
  13.1733         96
  13.3590         81
  13.5448         98
  13.7305        119
  13.9163         90
  14.1020         87
  14.2878         74
  14.4736         94
  14.6593         81
  14.8451         79
  15.0308         79
  15.2166         93
  15.4023         78
  15.5881         72
  15.7738         88
  15.9596         91
  16.1454         75
  16.3311         79
  16.5169        108
  16.7026         90
  16.8884         99
  17.0741         79
  17.2599         79
  17.4457         87
  17.6314         76
  17.8172         80
  18.0029         89
  18.1887         78
  18.3744         87
  18.5602         90
  18.7459         74
  18.9317         90
  19.1175         86
  19.3032         90
  19.4890         94
  19.6747         81
  19.8605         89
  20.0462         82
  20.2320         92
  20.4177         91
  20.6035         82
  20.7893         86
  20.9750        100
  21.1608        118
  21.3465        228
  21.5323         78
  21.7180         79
  21.9038         95
  22.0896        119
  22.2753        108
  22.4611        112
  22.6468         88
  22.8326         91
  23.0183        127
  23.2041         81
  23.3898         97
  23.5756        106
  23.7614         99
  23.9471         89
  24.1329        101
  24.3186        102
  24.5044        118
  24.6901        111
  24.8759        108
  25.0616        101
  25.2474        105
  25.4332         90
  25.6189        103
  25.8047         87
  25.9904        110
  26.1762        107
  26.3619        104
  26.5477         89
  26.7335         90
  26.9192         91
  27.1050         79
  27.2907         99
  27.4765         83
  27.6622         83
  27.8480         68
  28.0337         88
  28.2195         85
  28.4053         92
  28.5910        108
  28.7768         90
  28.9625         82
  29.1483         86
  29.3340         74
  29.5198         58
  29.7055         68
  29.8913         75
  30.0771         62
  30.2628         70
  30.4486        140
  30.6343         56
  30.8201         65
  31.0058         67
  31.1916         58
  31.3774         69
  31.5631         65
  31.7489         63
  31.9346         69
  32.1204         51
  32.3061         70
  32.4919         79
  32.6776         60
  32.8634         51
  33.0492         51
  33.2349         54
  33.4207         55
  33.6064         59
  33.7922         71
  33.9779         69
  34.1637         55
  34.3494         67
  34.5352         72
  34.7210         61
  34.9067         62
  35.0925         56
  35.2782         45
  35.4640         46
  35.6497         46
  35.8355         46
  36.0213         49
  36.2070         45
  36.3928         47
  36.5785         50
  36.7643         45
  36.9500         43
  37.1358         42
  37.3215         44
  37.5073         59
  37.6931         63
  37.8788         50
  38.0646         39
  38.2503         45
  38.4361         42
  38.6218         41
  38.8076         41
  38.9933         43
  39.1791         47
  39.3649         45
  39.5506         30
  39.7364         43
  39.9221         33
  40.1079         34
  40.2936         41
  40.4794         31
  40.6652         38
  40.8509         40
  41.0367         47
  41.2224         37
  41.4082         33
  41.5939         24
  41.7797         37
  41.9654         25
  42.1512         31
  42.3370         36
  42.5227         43
  42.7085         34
  42.8942         41
  43.0800         26
  43.2657         53
  43.4515         41
  43.6372         45
  43.8230         33
  44.0088         43
  44.1945         47
  44.3803         30
  44.5660         42
  44.7518         43
  44.9375         37
  45.1233         32
  45.3091         32
  45.4948         37
  45.6806         34
  45.8663         31
  46.0521         29
  46.2378         19
  46.4236         37
  46.6093         28
  46.7951         37
  46.9809         34
  47.1666         34
  47.3524         31
  47.5381         43
  47.7239         40
  47.9096         38
  48.0954         32
  48.2811         29
  48.4669         35
  48.6527         42
  48.8384         30
  49.0242         31
  49.2099         35
  49.3957         28
  49.5814         28
  49.7672         32
  49.9530         46
  50.1387         29
  50.3245         41
  50.5102         33
  50.6960         31
  50.8817         34
  51.0675         28
  51.2532         28
  51.4390         29
  51.6248         34
  51.8105         39
  51.9963         28
  52.1820         31
  52.3678         34
  52.5535         30
  52.7393         28
  52.9250         25
  53.1108         29
  53.2966         25
  53.4823         34
  53.6681         27
  53.8538         35
  54.0396         40
  54.2253         28
  54.4111         39
  54.5969         31
  54.7826         24
  54.9684         20
  55.1541         26
  55.3399         30
  55.5256         37
  55.7114         25
  55.8971         28
  56.0829         29
  56.2687         39
  56.4544         39
  56.6402         35
  56.8259         23
  57.0117         27
  57.1974         22
  57.3832         24
  57.5689         33
  57.7547         28
  57.9405         21
  58.1262         25
  58.3120         30
  58.4977         27
  58.6835         27
  58.8692         28
  59.0550         17
  59.2408         37
  59.4265         26
  59.6123         24
  59.7980         14
  59.9838         27
  60.0024         28

File: ML_20220718_16_SJD_4_LaB6-2min.csv
;,2THETA,
5.0000,136
5.1858,121
5.3715,123
5.5573,123
5.7430,106
5.9288,101
6.1145,92
6.3003,91
6.4860,76
6.6718,93
6.8576,86
7.0433,76
7.2291,75
7.4148,75
7.6006,89
7.7863,113
7.9721,113
8.1579,96
8.3436,96
8.5294,94
8.7151,92
8.9009,109
9.0866,126
9.2724,104
9.4581,125
9.6439,106
9.8297,108
10.0154,113
10.2012,117
10.3869,111
10.5727,119
10.7584,133
10.9442,122
11.1299,110
11.3157,135
11.5015,137
11.6872,110
11.8730,98
12.0587,114
12.2445,86
12.4302,101
12.6160,108
12.8018,100
12.9875,93
13.1733,101
13.3590,85
13.5448,99
13.7305,91
13.9163,99
14.1020,84
14.2878,82
14.4736,81
14.6593,88
14.8451,96
15.0308,84
15.2166,88
15.4023,90
15.5881,86
15.7738,86
15.9596,80
16.1454,76
16.3311,77
16.5169,82
16.7026,77
16.8884,68
17.0741,80
17.2599,73
17.4457,70
17.6314,86
17.8172,93
18.0029,89
18.1887,78
18.3744,89
18.5602,71
18.7459,88
18.9317,100
19.1175,98
19.3032,94
19.4890,81
19.6747,88
19.8605,86
20.0462,81
20.2320,84
20.4177,77
20.6035,104
20.7893,87
20.9750,101
21.1608,117
21.3465,248
21.5323,110
21.7180,94
21.9038,106
22.0896,100
22.2753,90
22.4611,97
22.6468,79
22.8326,86
23.0183,102
23.2041,86
23.3898,75
23.5756,82
23.7614,97
23.9471,97
24.1329,113
24.3186,108
24.5044,96
24.6901,90
24.8759,103
25.0616,100
25.2474,101
25.4332,91
25.6189,87
25.8047,99
25.9904,84
26.1762,102
26.3619,103
26.5477,86
26.7335,87
26.9192,95
27.1050,116
27.2907,104
27.4765,81
27.6622,81
27.8480,94
28.0337,81
28.2195,75
28.4053,88
28.5910,99
28.7768,99
28.9625,80
29.1483,62
29.3340,62
29.5198,86
29.7055,82
29.8913,83
30.0771,83
30.2628,81
30.4486,122
30.6343,85
30.8201,86
31.0058,78
31.1916,86
31.3774,75
31.5631,84
31.7489,76
31.9346,55
32.1204,62
32.3061,53
32.4919,87
32.6776,64
32.8634,66
33.0492,60
33.2349,47
33.4207,61
33.6064,54
33.7922,57
33.9779,68
34.1637,53
34.3494,55
34.5352,61
34.7210,65
34.9067,63
35.0925,63
35.2782,47
35.4640,47
35.6497,45
35.8355,46
36.0213,43
36.2070,43
36.3928,51
36.5785,49
36.7643,48
36.9500,48
37.1358,58
37.3215,49
37.5073,49
37.6931,53
37.8788,34
38.0646,38
38.2503,46
38.4361,39
38.6218,35
38.8076,48
38.9933,36
39.1791,26
39.3649,44
39.5506,44
39.7364,46
39.9221,33
40.1079,36
40.2936,34
40.4794,32
40.6652,32
40.8509,47
41.0367,43
41.2224,48
41.4082,36
41.5939,34
41.7797,36
41.9654,41
42.1512,44
42.3370,41
42.5227,31
42.7085,27
42.8942,33
43.0800,34
43.2657,41
43.4515,42
43.6372,63
43.8230,51
44.0088,30
44.1945,29
44.3803,50
44.5660,38
44.7518,45
44.9375,40
45.1233,40
45.3091,31
45.4948,19
45.6806,26
45.8663,31
46.0521,39
46.2378,36
46.4236,29
46.6093,32
46.7951,30
46.9809,34
47.1666,40
47.3524,34
47.5381,36
47.7239,28
47.9096,26
48.0954,28
48.2811,25
48.4669,33
48.6527,28
48.8384,31
49.0242,34
49.2099,33
49.3957,26
49.5814,34
49.7672,33
49.9530,32
50.1387,33
50.3245,31
50.5102,31
50.6960,30
50.8817,23
51.0675,26
51.2532,29
51.4390,46
51.6248,26
51.8105,42
51.9963,32
52.1820,19
52.3678,32
52.5535,34
52.7393,19
52.9250,34
53.1108,27
53.2966,29
53.4823,27
53.6681,33
53.8538,22
54.0396,40
54.2253,27
54.4111,25
54.5969,39
54.7826,31
54.9684,35
55.1541,16
55.3399,36
55.5256,35
55.7114,31
55.8971,30
56.0829,34
56.2687,28
56.4544,23
56.6402,30
56.8259,24
57.0117,21
57.1974,26
57.3832,30
57.5689,34
57.7547,29
57.9405,33
58.1262,30
58.3120,24
58.4977,25
58.6835,22
58.8692,26
59.0550,20
59.2408,26
59.4265,32
59.6123,28
59.7980,24
59.9838,21
60.0024,29