Folder: xrd_clustering/notebooks/data/xrd_data (part 17)

File: ML_20220718_50_SJD_4_LaB6-2min.uxd
; (content of file Y:\Sam\Apurva-07-20-2022\puck4\ML_20220718_50_SJD_4_LaB6-2min.raw)
_FILEVERSION = 3
_SAMPLE = ML_20220718_50_SJD_4_LaB6-2min
_+SAMPLE =
_SITE = USA
_USER = Administrator
_GONIOMETER_CODE = 20
; Goniometer : D8 theta/2theta, stage : Unknown
_ATTACHMENTS_CODE = 0
_GONIOMETER_RADIUS = 200.5
_FIXED_DIVSLIT = 0.6
_FIXED_SAMPLESLIT = 0
_SOLLER_SLITS = 2
_FIXED_DETSLIT = 9.55
_MONOCHROMATOR = 0
; Incident beam monochromator : None
_SOLLER_SLITS_2 = N
_THIN_FILM = N
_BETA_FILTER = Y
_FIXED_ANTISLIT = 5.89
_ANALYZER_CODE = 0
; Received beam analyzer : None
_DATEMEASURED = "26-Jul-2022 12:27:38"
_WL_UNIT = A
_WL1 = 1.5406
_WL2 = 1.54439
_WL3 = 1.39222
_WLRATIO = 0.5
_ANODE = Cu
_V4_INF_CREATOR = XRDWizard
_V4_INF_CREATOR_VERSION = V2.9.0.22
_V4_INF_WIZARD_VERSION = V2.9.0.22
_V4_INF_WIZARD_ADDINS = V2.9.0.22
_V4_INF_WIZARD_DOCTYPE = XRD
_V4_INF_OSUSER = McQueenLab
_V4_INF_USER = Administrator
_V4_INF_SITE = USA
_V4_INF_SAMPLEID = ML_20220718_50_SJD_4_LaB6-2min

; Data for range 1
_DRIVE = COUPLED
_STEPTIME = 5.64
_STEPSIZE = 0.0185756
_STEPMODE = C
_START = 5
_THETA = 2.5
_2THETA = 5
_KHI = 0
_PHI = 0
_X = 0
_Y = 0
_Z = 0
_DETECTOR = 5
; Detector type : Unknown
_DETECTORSLIT = unkn
_AUX1 = 0
_AUX2 = 0
_AUX3 = 0
_TIMESTARTED = 15
_TEMP_RATE = -1
_TEMP_DELAY = -1
_KV = 40
_MA = 40
_RANGE_WL = 1.5406
_3DPLANE = 0
_V4_ADDITIONALDETECTOR = 257
_V4_PSD2THETA = 3.4183
_V4_PSDCHANNEL1 = 0
_V4_PSDAPERTURE = 12.68
_V4_PSDTYPE = 5
_V4_PSDFIXED = 0
_V4_COUNTERS_MASK = 4096
_V4_DRIVES_MASK = 0
_V4_ENCODERS_MASK = 0
_2THETACOUNTS = 1
; 2THETA  PSD
   5.0000        115
   5.1858        106
   5.3715        100
   5.5573        126
   5.7430         85
   5.9288         91
   6.1145        103
   6.3003         97
   6.4860         88
   6.6718         89
   6.8576         77
   7.0433         80
   7.2291         72
   7.4148         80
   7.6006         78
   7.7863         85
   7.9721         99
   8.1579         94
   8.3436         97
   8.5294         85
   8.7151        113
   8.9009        100
   9.0866        109
   9.2724         85
   9.4581        135
   9.6439        133
   9.8297        115
  10.0154         99
  10.2012         99
  10.3869        114
  10.5727        114
  10.7584        100
  10.9442        120
  11.1299        111
  11.3157        126
  11.5015        128
  11.6872        121
  11.8730        120
  12.0587        101
  12.2445        103
  12.4302        134
  12.6160        106
  12.8018        103
  12.9875         98
  13.1733         90
  13.3590         76
  13.5448         93
  13.7305         97
  13.9163         95
  14.1020         93
  14.2878         99
  14.4736         80
  14.6593         98
  14.8451         60
  15.0308         64
  15.2166         87
  15.4023         88
  15.5881         89
  15.7738         83
  15.9596         81
  16.1454         83
  16.3311         93
  16.5169         86
  16.7026         81
  16.8884         82
  17.0741         77
  17.2599         76
  17.4457         94
  17.6314         89
  17.8172         88
  18.0029         79
  18.1887         91
  18.3744         88
  18.5602         65
  18.7459         68
  18.9317         84
  19.1175         83
  19.3032         85
  19.4890         94
  19.6747        107
  19.8605         95
  20.0462         76
  20.2320         89
  20.4177         85
  20.6035         80
  20.7893         99
  20.9750         68
  21.1608        114
  21.3465        223
  21.5323         81
  21.7180         96
  21.9038         95
  22.0896        102
  22.2753         97
  22.4611         96
  22.6468         84
  22.8326        111
  23.0183        101
  23.2041        104
  23.3898         97
  23.5756         93
  23.7614         91
  23.9471        118
  24.1329         87
  24.3186        119
  24.5044        103
  24.6901        109
  24.8759         96
  25.0616         88
  25.2474         99
  25.4332        110
  25.6189         84
  25.8047         86
  25.9904         94
  26.1762         83
  26.3619        103
  26.5477         88
  26.7335         92
  26.9192         99
  27.1050         88
  27.2907         98
  27.4765         92
  27.6622         90
  27.8480        105
  28.0337         84
  28.2195         81
  28.4053         71
  28.5910         71
  28.7768        102
  28.9625         84
  29.1483         88
  29.3340         80
  29.5198         69
  29.7055         83
  29.8913         87
  30.0771         82
  30.2628         88
  30.4486        129
  30.6343         61
  30.8201         67
  31.0058         52
  31.1916         71
  31.3774         69
  31.5631         65
  31.7489         65
  31.9346         61
  32.1204         69
  32.3061         49
  32.4919         72
  32.6776         58
  32.8634         52
  33.0492         57
  33.2349         60
  33.4207         61
  33.6064         53
  33.7922         60
  33.9779         49
  34.1637         71
  34.3494         44
  34.5352         69
  34.7210         70
  34.9067         59
  35.0925         56
  35.2782         60
  35.4640         53
  35.6497         46
  35.8355         48
  36.0213         48
  36.2070         59
  36.3928         47
  36.5785         45
  36.7643         45
  36.9500         55
  37.1358         43
  37.3215         41
  37.5073         58
  37.6931         49
  37.8788         41
  38.0646         34
  38.2503         46
  38.4361         41
  38.6218         33
  38.8076         37
  38.9933         32
  39.1791         36
  39.3649         35
  39.5506         43
  39.7364         55
  39.9221         38
  40.1079         22
  40.2936         35
  40.4794         39
  40.6652         35
  40.8509         42
  41.0367         43
  41.2224         42
  41.4082         47
  41.5939         40
  41.7797         37
  41.9654         37
  42.1512         34
  42.3370         30
  42.5227         38
  42.7085         39
  42.8942         33
  43.0800         40
  43.2657         36
  43.4515         35
  43.6372         64
  43.8230         33
  44.0088         26
  44.1945         39
  44.3803         35
  44.5660         49
  44.7518         39
  44.9375         34
  45.1233         32
  45.3091         40
  45.4948         31
  45.6806         29
  45.8663         35
  46.0521         35
  46.2378         31
  46.4236         30
  46.6093         39
  46.7951         25
  46.9809         36
  47.1666         25
  47.3524         30
  47.5381         34
  47.7239         36
  47.9096         32
  48.0954         39
  48.2811         40
  48.4669         31
  48.6527         30
  48.8384         33
  49.0242         47
  49.2099         32
  49.3957         35
  49.5814         26
  49.7672         28
  49.9530         31
  50.1387         32
  50.3245         39
  50.5102         31
  50.6960         25
  50.8817         20
  51.0675         29
  51.2532         26
  51.4390         34
  51.6248         32
  51.8105         37
  51.9963         29
  52.1820         22
  52.3678         27
  52.5535         33
  52.7393         43
  52.9250         26
  53.1108         23
  53.2966         25
  53.4823         30
  53.6681         24
  53.8538         24
  54.0396         41
  54.2253         33
  54.4111         25
  54.5969         26
  54.7826         27
  54.9684         24
  55.1541         20
  55.3399         21
  55.5256         28
  55.7114         26
  55.8971         31
  56.0829         32
  56.2687         36
  56.4544         21
  56.6402         33
  56.8259         31
  57.0117         26
  57.1974         39
  57.3832         20
  57.5689         30
  57.7547         26
  57.9405         25
  58.1262         31
  58.3120         20
  58.4977         18
  58.6835         34
  58.8692         32
  59.0550         29
  59.2408         23
  59.4265         26
  59.6123         24
  59.7980         26
  59.9838         27
  60.0024         22

File: ML_20220718_50_SJD_4_LaB6-4min.uxd
; (content of file Y:\Sam\Apurva-07-20-2022\puck4\ML_20220718_50_SJD_4_LaB6-4min.raw)
_FILEVERSION = 3
_SAMPLE = ML_20220718_50_SJD_4_LaB6-4min
_+SAMPLE =
_SITE = USA
_USER = Administrator
_GONIOMETER_CODE = 20
; Goniometer : D8 theta/2theta, stage : Unknown
_ATTACHMENTS_CODE = 0
_GONIOMETER_RADIUS = 200.5
_FIXED_DIVSLIT = 0.6
_FIXED_SAMPLESLIT = 0
_SOLLER_SLITS = 2
_FIXED_DETSLIT = 9.55
_MONOCHROMATOR = 0
; Incident beam monochromator : None
_SOLLER_SLITS_2 = N
_THIN_FILM = N
_BETA_FILTER = Y
_FIXED_ANTISLIT = 5.89
_ANALYZER_CODE = 0
; Received beam analyzer : None
_DATEMEASURED = "26-Jul-2022 14:00:47"
_WL_UNIT = A
_WL1 = 1.5406
_WL2 = 1.54439
_WL3 = 1.39222
_WLRATIO = 0.5
_ANODE = Cu
_V4_INF_CREATOR = XRDWizard
_V4_INF_CREATOR_VERSION = V2.9.0.22
_V4_INF_WIZARD_VERSION = V2.9.0.22
_V4_INF_WIZARD_ADDINS = V2.9.0.22
_V4_INF_WIZARD_DOCTYPE = XRD
_V4_INF_OSUSER = McQueenLab
_V4_INF_USER = Administrator
_V4_INF_SITE = USA
_V4_INF_SAMPLEID = ML_20220718_50_SJD_4_LaB6-4min

; Data for range 1
_DRIVE = COUPLED
_STEPTIME = 11.28
_STEPSIZE = 0.0185756
_STEPMODE = C
_START = 5
_THETA = 2.5
_2THETA = 5
_KHI = 0
_PHI = 0
_X = 0
_Y = 0
_Z = 0
_DETECTOR = 5
; Detector type : Unknown
_DETECTORSLIT = unkn
_AUX1 = 0
_AUX2 = 0
_AUX3 = 0
_TIMESTARTED = 15
_TEMP_RATE = -1
_TEMP_DELAY = -1
_KV = 40
_MA = 40
_RANGE_WL = 1.5406
_3DPLANE = 0
_V4_ADDITIONALDETECTOR = 257
_V4_PSD2THETA = 3.3663
_V4_PSDCHANNEL1 = 0
_V4_PSDAPERTURE = 12.68
_V4_PSDTYPE = 5
_V4_PSDFIXED = 0
_V4_COUNTERS_MASK = 4096
_V4_DRIVES_MASK = 0
_V4_ENCODERS_MASK = 0
_2THETACOUNTS = 1
; 2THETA  PSD
   5.0000        248
   5.1858        226
   5.3715        236
   5.5573        210
   5.7430        215
   5.9288        193
   6.1145        191
   6.3003        182
   6.4860        174
   6.6718        153
   6.8576        173
   7.0433        186
   7.2291        164
   7.4148        172
   7.6006        174
   7.7863        190
   7.9721        203
   8.1579        195
   8.3436        187
   8.5294        195
   8.7151        199
   8.9009        204
   9.0866        222
   9.2724        222
   9.4581        232
   9.6439        239
   9.8297        243
  10.0154        233
  10.2012        213
  10.3869        215
  10.5727        202
  10.7584        251
  10.9442        246
  11.1299        262
  11.3157        225
  11.5015        224
  11.6872        213
  11.8730        231
  12.0587        234
  12.2445        210
  12.4302        232
  12.6160        228
  12.8018        228
  12.9875        212
  13.1733        199
  13.3590        181
  13.5448        191
  13.7305        182
  13.9163        166
  14.1020        167
  14.2878        191
  14.4736        188
  14.6593        179
  14.8451        167
  15.0308        173
  15.2166        169
  15.4023        183
  15.5881        167
  15.7738        176
  15.9596        176
  16.1454        162
  16.3311        153
  16.5169        155
  16.7026        162
  16.8884        162
  17.0741        176
  17.2599        176
  17.4457        159
  17.6314        159
  17.8172        154
  18.0029        181
  18.1887        169
  18.3744        171
  18.5602        185
  18.7459        173
  18.9317        166
  19.1175        175
  19.3032        176
  19.4890        178
  19.6747        195
  19.8605        193
  20.0462        168
  20.2320        184
  20.4177        177
  20.6035        179
  20.7893        181
  20.9750        191
  21.1608        213
  21.3465        474
  21.5323        196
  21.7180        214
  21.9038        185
  22.0896        194
  22.2753        201
  22.4611        196
  22.6468        180
  22.8326        222
  23.0183        183
  23.2041        183
  23.3898        211
  23.5756        210
  23.7614        207
  23.9471        229
  24.1329        200
  24.3186        257
  24.5044        186
  24.6901        170
  24.8759        206
  25.0616        214
  25.2474        190
  25.4332        191
  25.6189        179
  25.8047        216
  25.9904        176
  26.1762        171
  26.3619        180
  26.5477        197
  26.7335        170
  26.9192        180
  27.1050        176
  27.2907        233
  27.4765        169
  27.6622        179
  27.8480        167
  28.0337        171
  28.2195        157
  28.4053        169
  28.5910        186
  28.7768        170
  28.9625        139
  29.1483        150
  29.3340        170
  29.5198        156
  29.7055        172
  29.8913        189
  30.0771        153
  30.2628        168
  30.4486        242
  30.6343        162
  30.8201        154
  31.0058        132
  31.1916        144
  31.3774        129
  31.5631        160
  31.7489        138
  31.9346        129
  32.1204        127
  32.3061        139
  32.4919        151
  32.6776        138
  32.8634        141
  33.0492        121
  33.2349        113
  33.4207        112
  33.6064        111
  33.7922        113
  33.9779        122
  34.1637        111
  34.3494        123
  34.5352        114
  34.7210        132
  34.9067        126
  35.0925        104
  35.2782        105
  35.4640        121
  35.6497         84
  35.8355        102
  36.0213        105
  36.2070         93
  36.3928        105
  36.5785         94
  36.7643         93
  36.9500         89
  37.1358         80
  37.3215         83
  37.5073        109
  37.6931        106
  37.8788         87
  38.0646         78
  38.2503         86
  38.4361         83
  38.6218         87
  38.8076         83
  38.9933         90
  39.1791         78
  39.3649         84
  39.5506         89
  39.7364         69
  39.9221         87
  40.1079         80
  40.2936         72
  40.4794         89
  40.6652         90
  40.8509         76
  41.0367         70
  41.2224         81
  41.4082         80
  41.5939         84
  41.7797         69
  41.9654         74
  42.1512         69
  42.3370         81
  42.5227         74
  42.7085         81
  42.8942         63
  43.0800         76
  43.2657         97
  43.4515         81
  43.6372         98
  43.8230         61
  44.0088         80
  44.1945         66
  44.3803         67
  44.5660         73
  44.7518         72
  44.9375         63
  45.1233         74
  45.3091         80
  45.4948         66
  45.6806         75
  45.8663         75
  46.0521         73
  46.2378         80
  46.4236         73
  46.6093         68
  46.7951         49
  46.9809         72
  47.1666         82
  47.3524         77
  47.5381         59
  47.7239         61
  47.9096         66
  48.0954         57
  48.2811         73
  48.4669         56
  48.6527         60
  48.8384         57
  49.0242         64
  49.2099         60
  49.3957         59
  49.5814         64
  49.7672         51
  49.9530         56
  50.1387         63
  50.3245         87
  50.5102         71
  50.6960         52
  50.8817         57
  51.0675         61
  51.2532         61
  51.4390         78
  51.6248         63
  51.8105         64
  51.9963         76
  52.1820         60
  52.3678         54
  52.5535         56
  52.7393         52
  52.9250         66
  53.1108         57
  53.2966         63
  53.4823         44
  53.6681         51
  53.8538         56
  54.0396         65
  54.2253         50
  54.4111         69
  54.5969         46
  54.7826         55
  54.9684         56
  55.1541         52
  55.3399         48
  55.5256         53
  55.7114         59
  55.8971         49
  56.0829         67
  56.2687         63
  56.4544         65
  56.6402         67
  56.8259         59
  57.0117         60
  57.1974         68
  57.3832         46
  57.5689         47
  57.7547         54
  57.9405         73
  58.1262         54
  58.3120         54
  58.4977         61
  58.6835         43
  58.8692         58
  59.0550         59
  59.2408         47
  59.4265         63
  59.6123         68
  59.7980         58
  59.9838         44
  60.0024         50

File: ML_20220718_51_SJD_4_LaB6-1min.csv
;,2THETA,
5.0000,88
5.1858,99
5.3715,89
5.5573,91
5.7430,72
5.9288,81
6.1145,77
6.3003,77
6.4860,53
6.6718,60
6.8576,71
7.0433,56
7.2291,56
7.4148,51
7.6006,65
7.7863,63
7.9721,69
8.1579,52
8.3436,70
8.5294,74
8.7151,62
8.9009,79
9.0866,61
9.2724,83
9.4581,87
9.6439,83
9.8297,91
10.0154,84
10.2012,87
10.3869,78
10.5727,103
10.7584,88
10.9442,86
11.1299,86
11.3157,87
11.5015,83
11.6872,88
11.8730,86
12.0587,86
12.2445,93
12.4302,99
12.6160,71
12.8018,90
12.9875,74
13.1733,72
13.3590,81
13.5448,63
13.7305,80
13.9163,74
14.1020,65
14.2878,71
14.4736,75
14.6593,61
14.8451,60
15.0308,63
15.2166,72
15.4023,66
15.5881,62
15.7738,58
15.9596,65
16.1454,76
16.3311,57
16.5169,57
16.7026,60
16.8884,52
17.0741,39
17.2599,63
17.4457,58
17.6314,53
17.8172,54
18.0029,76
18.1887,75
18.3744,70
18.5602,65
18.7459,60
18.9317,73
19.1175,59
19.3032,69
19.4890,70
19.6747,69
19.8605,65
20.0462,73
20.2320,84
20.4177,52
20.6035,63
20.7893,58
20.9750,82
21.1608,94
21.3465,172
21.5323,70
21.7180,79
21.9038,79
22.0896,74
22.2753,85
22.4611,69
22.6468,74
22.8326,85
23.0183,70
23.2041,79
23.3898,83
23.5756,84
23.7614,87
23.9471,71
24.1329,76
24.3186,88
24.5044,84
24.6901,67
24.8759,57
25.0616,68
25.2474,75
25.4332,89
25.6189,61
25.8047,52
25.9904,67
26.1762,71
26.3619,71
26.5477,78
26.7335,67
26.9192,60
27.1050,68
27.2907,79
27.4765,60
27.6622,63
27.8480,64
28.0337,58
28.2195,60
28.4053,71
28.5910,62
28.7768,55
28.9625,60
29.1483,60
29.3340,48
29.5198,56
29.7055,72
29.8913,44
30.0771,62
30.2628,54
30.4486,89
30.6343,54
30.8201,44
31.0058,56
31.1916,54
31.3774,54
31.5631,34
31.7489,62
31.9346,56
32.1204,43
32.3061,51
32.4919,52
32.6776,59
32.8634,35
33.0492,46
33.2349,38
33.4207,28
33.6064,46
33.7922,38
33.9779,47
34.1637,48
34.3494,47
34.5352,45
34.7210,46
34.9067,52
35.0925,42
35.2782,41
35.4640,34
35.6497,39
35.8355,42
36.0213,36
36.2070,47
36.3928,35
36.5785,36
36.7643,38
36.9500,40
37.1358,22
37.3215,45
37.5073,51
37.6931,32
37.8788,20
38.0646,36
38.2503,27
38.4361,38
38.6218,31
38.8076,29
38.9933,20
39.1791,35
39.3649,30
39.5506,32
39.7364,32
39.9221,35
40.1079,21
40.2936,29
40.4794,32
40.6652,28
40.8509,38
41.0367,28
41.2224,27
41.4082,30
41.5939,33
41.7797,30
41.9654,31
42.1512,26
42.3370,24
42.5227,25
42.7085,22
42.8942,18
43.0800,26
43.2657,37
43.4515,32
43.6372,33
43.8230,13
44.0088,26
44.1945,34
44.3803,21
44.5660,27
44.7518,35
44.9375,27
45.1233,28
45.3091,20
45.4948,23
45.6806,22
45.8663,18
46.0521,26
46.2378,23
46.4236,25
46.6093,19
46.7951,28
46.9809,35
47.1666,13
47.3524,25
47.5381,27
47.7239,23
47.9096,16
48.0954,17
48.2811,17
48.4669,27
48.6527,15
48.8384,24
49.0242,28
49.2099,22
49.3957,27
49.5814,18
49.7672,16
49.9530,24
50.1387,26
50.3245,24
50.5102,26
50.6960,20
50.8817,26
51.0675,14
51.2532,23
51.4390,24
51.6248,20
51.8105,19
51.9963,27
52.1820,23
52.3678,22
52.5535,19
52.7393,17
52.9250,20
53.1108,23
53.2966,21
53.4823,21
53.6681,15
53.8538,21
54.0396,18
54.2253,21
54.4111,30
54.5969,17
54.7826,21
54.9684,17
55.1541,25
55.3399,29
55.5256,11
55.7114,18
55.8971,22
56.0829,19
56.2687,23
56.4544,20
56.6402,14
56.8259,21
57.0117,14
57.1974,15
57.3832,15
57.5689,13
57.7547,25
57.9405,17
58.1262,20
58.3120,20
58.4977,21
58.6835,17
58.8692,12
59.0550,26
59.2408,18
59.4265,22
59.6123,18
59.7980,22
59.9838,20
60.0024,16