Folder: xrd_clustering/notebooks/data/xrd_data (part 25)

File: ML_20220720_0_SJD_4_LaB6-1min.uxd
; (content of file Y:\Sam\Apurva-07-20-2022\puck4\ML_20220718_0_SJD_0_LaB6-1min.raw)
_FILEVERSION = 3
_SAMPLE = ML_20220718_0_SJD_0_LaB6-1mi
_+SAMPLE =
_SITE = USA
_USER = Administrator
_GONIOMETER_CODE = 20
; Goniometer : D8 theta/2theta, stage : Unknown
_ATTACHMENTS_CODE = 0
_GONIOMETER_RADIUS = 200.5
_FIXED_DIVSLIT = 0.6
_FIXED_SAMPLESLIT = 0
_SOLLER_SLITS = 2
_FIXED_DETSLIT = 9.55
_MONOCHROMATOR = 0
; Incident beam monochromator : None
_SOLLER_SLITS_2 = N
_THIN_FILM = N
_BETA_FILTER = Y
_FIXED_ANTISLIT = 5.89
_ANALYZER_CODE = 0
; Received beam analyzer : None
_DATEMEASURED = "21-Jul-2022 02:58:41"
_WL_UNIT = A
_WL1 = 1.5406
_WL2 = 1.54439
_WL3 = 1.39222
_WLRATIO = 0.5
_ANODE = Cu
_V4_INF_CREATOR = XRDWizard
_V4_INF_CREATOR_VERSION = V2.9.0.22
_V4_INF_WIZARD_VERSION = V2.9.0.22
_V4_INF_WIZARD_ADDINS = V2.9.0.22
_V4_INF_WIZARD_DOCTYPE = XRD
_V4_INF_OSUSER = McQueenLab
_V4_INF_USER = Administrator
_V4_INF_SITE = USA
_V4_INF_SAMPLEID = ML_20220718_0_SJD_0_LaB6-1mi

; Data for range 1
_DRIVE = COUPLED
_STEPTIME = 4.23
_STEPSIZE = 0.0185756
_STEPMODE = C
_START = 5
_THETA = 2.5
_2THETA = 5
_KHI = 0
_PHI = 0
_X = 0
_Y = 0
_Z = 0
_DETECTOR = 5
; Detector type : Unknown
_DETECTORSLIT = unkn
_AUX1 = 0
_AUX2 = 0
_AUX3 = 0
_TIMESTARTED = 15
_TEMP_RATE = -1
_TEMP_DELAY = -1
_KV = 40
_MA = 40
_RANGE_WL = 1.5406
_3DPLANE = 0
_V4_ADDITIONALDETECTOR = 257
_V4_PSD2THETA = 3.3706
_V4_PSDCHANNEL1 = 0
_V4_PSDAPERTURE = 12.68
_V4_PSDTYPE = 5
_V4_PSDFIXED = 0
_V4_COUNTERS_MASK = 4096
_V4_DRIVES_MASK = 0
_V4_ENCODERS_MASK = 0
_2THETACOUNTS = 1
; 2THETA  PSD
   5.0000         84
   5.1858         76
   5.3715         83
   5.5573         91
   5.7430         62
   5.9288         82
   6.1145         63
   6.3003         61
   6.4860         62
   6.6718         54
   6.8576         75
   7.0433         55
   7.2291         65
   7.4148         53
   7.6006         56
   7.7863         61
   7.9721         60
   8.1579         77
   8.3436         70
   8.5294         69
   8.7151         78
   8.9009         72
   9.0866         67
   9.2724         85
   9.4581         76
   9.6439         74
   9.8297         94
  10.0154         74
  10.2012         97
  10.3869         82
  10.5727         81
  10.7584         96
  10.9442        101
  11.1299         90
  11.3157         84
  11.5015         86
  11.6872         94
  11.8730         85
  12.0587         84
  12.2445         75
  12.4302         75
  12.6160         75
  12.8018         69
  12.9875         55
  13.1733         82
  13.3590         68
  13.5448         79
  13.7305         54
  13.9163         69
  14.1020         70
  14.2878         54
  14.4736         72
  14.6593         57
  14.8451         57
  15.0308         60
  15.2166         59
  15.4023         50
  15.5881         59
  15.7738         52
  15.9596         63
  16.1454         63
  16.3311         53
  16.5169         69
  16.7026         52
  16.8884         75
  17.0741         63
  17.2599         54
  17.4457         58
  17.6314         46
  17.8172         55
  18.0029         59
  18.1887         63
  18.3744         64
  18.5602         59
  18.7459         54
  18.9317         53
  19.1175         72
  19.3032         61
  19.4890         68
  19.6747         64
  19.8605         64
  20.0462         60
  20.2320         51
  20.4177         58
  20.6035         67
  20.7893         68
  20.9750         73
  21.1608         82
  21.3465        182
  21.5323         73
  21.7180         80
  21.9038         66
  22.0896         73
  22.2753         72
  22.4611         74
  22.6468         82
  22.8326         73
  23.0183         77
  23.2041         59
  23.3898         66
  23.5756         73
  23.7614         69
  23.9471         86
  24.1329         76
  24.3186         81
  24.5044         69
  24.6901         77
  24.8759         86
  25.0616         69
  25.2474         64
  25.4332         68
  25.6189         82
  25.8047         83
  25.9904         68
  26.1762         72
  26.3619         66
  26.5477         64
  26.7335         64
  26.9192         71
  27.1050         63
  27.2907         68
  27.4765         63
  27.6622         69
  27.8480         69
  28.0337         72
  28.2195         69
  28.4053         57
  28.5910         65
  28.7768         52
  28.9625         59
  29.1483         46
  29.3340         53
  29.5198         57
  29.7055         58
  29.8913         51
  30.0771         55
  30.2628         65
  30.4486         97
  30.6343         57
  30.8201         72
  31.0058         52
  31.1916         54
  31.3774         51
  31.5631         38
  31.7489         64
  31.9346         35
  32.1204         48
  32.3061         44
  32.4919         52
  32.6776         47
  32.8634         55
  33.0492         53
  33.2349         40
  33.4207         38
  33.6064         50
  33.7922         49
  33.9779         45
  34.1637         48
  34.3494         46
  34.5352         43
  34.7210         55
  34.9067         43
  35.0925         36
  35.2782         40
  35.4640         17
  35.6497         35
  35.8355         39
  36.0213         33
  36.2070         28
  36.3928         38
  36.5785         35
  36.7643         27
  36.9500         43
  37.1358         39
  37.3215         42
  37.5073         42
  37.6931         28
  37.8788         19
  38.0646         32
  38.2503         26
  38.4361         38
  38.6218         29
  38.8076         32
  38.9933         31
  39.1791         24
  39.3649         26
  39.5506         20
  39.7364         29
  39.9221         31
  40.1079         20
  40.2936         32
  40.4794         33
  40.6652         30
  40.8509         19
  41.0367         32
  41.2224         27
  41.4082         23
  41.5939         24
  41.7797         20
  41.9654         31
  42.1512         32
  42.3370         36
  42.5227         25
  42.7085         29
  42.8942         29
  43.0800         33
  43.2657         29
  43.4515         49
  43.6372         32
  43.8230         17
  44.0088         27
  44.1945         22
  44.3803         28
  44.5660         27
  44.7518         35
  44.9375         27
  45.1233         26
  45.3091         19
  45.4948         31
  45.6806         21
  45.8663         32
  46.0521         20
  46.2378         23
  46.4236         25
  46.6093         26
  46.7951         21
  46.9809         26
  47.1666         28
  47.3524         28
  47.5381         20
  47.7239         26
  47.9096         24
  48.0954         28
  48.2811         25
  48.4669         24
  48.6527         28
  48.8384         24
  49.0242         35
  49.2099         25
  49.3957         29
  49.5814         30
  49.7672         23
  49.9530         20
  50.1387         27
  50.3245         20
  50.5102         22
  50.6960         22
  50.8817         23
  51.0675         19
  51.2532         26
  51.4390         20
  51.6248         25
  51.8105         23
  51.9963         27
  52.1820         21
  52.3678         20
  52.5535         27
  52.7393         18
  52.9250         30
  53.1108         19
  53.2966         23
  53.4823         17
  53.6681         23
  53.8538         15
  54.0396         34
  54.2253         17
  54.4111         22
  54.5969         24
  54.7826         12
  54.9684         20
  55.1541         14
  55.3399         15
  55.5256         18
  55.7114         21
  55.8971         16
  56.0829         20
  56.2687         22
  56.4544         27
  56.6402         23
  56.8259         21
  57.0117         26
  57.1974         24
  57.3832         14
  57.5689         16
  57.7547         13
  57.9405         19
  58.1262         13
  58.3120         19
  58.4977         27
  58.6835         19
  58.8692         21
  59.0550         24
  59.2408         27
  59.4265         16
  59.6123         16
  59.7980         17
  59.9838         17
  60.0024         20

File: ML_20220720_0_SJD_4_LaB6-2min.csv
;,2THETA,
5.0000,124
5.1858,127
5.3715,121
5.5573,118
5.7430,105
5.9288,114
6.1145,87
6.3003,86
6.4860,84
6.6718,76
6.8576,83
7.0433,82
7.2291,80
7.4148,77
7.6006,80
7.7863,75
7.9721,79
8.1579,94
8.3436,105
8.5294,112
8.7151,101
8.9009,101
9.0866,108
9.2724,117
9.4581,123
9.6439,123
9.8297,124
10.0154,95
10.2012,117
10.3869,100
10.5727,112
10.7584,110
10.9442,111
11.1299,103
11.3157,97
11.5015,111
11.6872,116
11.8730,95
12.0587,94
12.2445,107
12.4302,102
12.6160,100
12.8018,109
12.9875,93
13.1733,121
13.3590,93
13.5448,87
13.7305,90
13.9163,94
14.1020,102
14.2878,77
14.4736,88
14.6593,70
14.8451,87
15.0308,86
15.2166,84
15.4023,54
15.5881,83
15.7738,86
15.9596,85
16.1454,62
16.3311,72
16.5169,68
16.7026,71
16.8884,63
17.0741,85
17.2599,66
17.4457,66
17.6314,68
17.8172,74
18.0029,76
18.1887,85
18.3744,74
18.5602,78
18.7459,79
18.9317,78
19.1175,85
19.3032,87
19.4890,77
19.6747,92
19.8605,87
20.0462,81
20.2320,95
20.4177,86
20.6035,81
20.7893,111
20.9750,82
21.1608,125
21.3465,256
21.5323,105
21.7180,86
21.9038,85
22.0896,94
22.2753,107
22.4611,101
22.6468,93
22.8326,98
23.0183,121
23.2041,109
23.3898,104
23.5756,118
23.7614,85
23.9471,100
24.1329,98
24.3186,107
24.5044,100
24.6901,94
24.8759,87
25.0616,114
25.2474,92
25.4332,101
25.6189,112
25.8047,93
25.9904,98
26.1762,86
26.3619,86
26.5477,99
26.7335,79
26.9192,99
27.1050,103
27.2907,96
27.4765,88
27.6622,71
27.8480,103
28.0337,65
28.2195,79
28.4053,78
28.5910,72
28.7768,70
28.9625,84
29.1483,78
29.3340,75
29.5198,76
29.7055,71
29.8913,66
30.0771,78
30.2628,58
30.4486,142
30.6343,62
30.8201,73
31.0058,77
31.1916,71
31.3774,76
31.5631,69
31.7489,72
31.9346,62
32.1204,62
32.3061,70
32.4919,63
32.6776,59
32.8634,65
33.0492,62
33.2349,75
33.4207,55
33.6064,52
33.7922,55
33.9779,65
34.1637,52
34.3494,55
34.5352,59
34.7210,75
34.9067,52
35.0925,70
35.2782,47
35.4640,45
35.6497,57
35.8355,50
36.0213,41
36.2070,52
36.3928,48
36.5785,41
36.7643,35
36.9500,47
37.1358,40
37.3215,42
37.5073,72
37.6931,33
37.8788,53
38.0646,34
38.2503,35
38.4361,37
38.6218,52
38.8076,38
38.9933,41
39.1791,45
39.3649,44
39.5506,37
39.7364,50
39.9221,39
40.1079,43
40.2936,41
40.4794,39
40.6652,36
40.8509,29
41.0367,33
41.2224,30
41.4082,38
41.5939,30
41.7797,35
41.9654,41
42.1512,43
42.3370,29
42.5227,34
42.7085,44
42.8942,36
43.0800,43
43.2657,40
43.4515,44
43.6372,25
43.8230,30
44.0088,37
44.1945,36
44.3803,43
44.5660,38
44.7518,34
44.9375,36
45.1233,39
45.3091,41
45.4948,47
45.6806,51
45.8663,39
46.0521,38
46.2378,27
46.4236,31
46.6093,34
46.7951,31
46.9809,39
47.1666,27
47.3524,36
47.5381,26
47.7239,27
47.9096,29
48.0954,30
48.2811,27
48.4669,41
48.6527,27
48.8384,42
49.0242,35
49.2099,37
49.3957,29
49.5814,25
49.7672,33
49.9530,26
50.1387,36
50.3245,32
50.5102,23
50.6960,22
50.8817,27
51.0675,21
51.2532,26
51.4390,38
51.6248,28
51.8105,30
51.9963,27
52.1820,25
52.3678,24
52.5535,23
52.7393,34
52.9250,36
53.1108,29
53.2966,25
53.4823,31
53.6681,33
53.8538,23
54.0396,31
54.2253,39
54.4111,31
54.5969,24
54.7826,24
54.9684,22
55.1541,24
55.3399,25
55.5256,20
55.7114,30
55.8971,28
56.0829,33
56.2687,39
56.4544,36
56.6402,21
56.8259,25
57.0117,24
57.1974,31
57.3832,23
57.5689,23
57.7547,34
57.9405,25
58.1262,22
58.3120,34
58.4977,21
58.6835,30
58.8692,30
59.0550,25
59.2408,33
59.4265,32
59.6123,21
59.7980,27
59.9838,22
60.0024,26

File: ML_20220720_0_SJD_4_LaB6-4min.csv
;,2THETA,
5.0000,262
5.1858,269
5.3715,234
5.5573,222
5.7430,199
5.9288,184
6.1145,209
6.3003,170
6.4860,212
6.6718,172
6.8576,164
7.0433,161
7.2291,189
7.4148,164
7.6006,163
7.7863,160
7.9721,210
8.1579,188
8.3436,191
8.5294,199
8.7151,206
8.9009,191
9.0866,248
9.2724,236
9.4581,227
9.6439,197
9.8297,225
10.0154,216
10.2012,237
10.3869,219
10.5727,227
10.7584,243
10.9442,221
11.1299,244
11.3157,241
11.5015,205
11.6872,218
11.8730,226
12.0587,205
12.2445,197
12.4302,209
12.6160,220
12.8018,180
12.9875,188
13.1733,218
13.3590,181
13.5448,182
13.7305,209
13.9163,196
14.1020,184
14.2878,172
14.4736,164
14.6593,198
14.8451,170
15.0308,173
15.2166,171
15.4023,159
15.5881,163
15.7738,168
15.9596,183
16.1454,156
16.3311,145
16.5169,162
16.7026,156
16.8884,150
17.0741,166
17.2599,145
17.4457,142
17.6314,151
17.8172,166
18.0029,155
18.1887,151
18.3744,168
18.5602,175
18.7459,144
18.9317,169
19.1175,167
19.3032,180
19.4890,171
19.6747,152
19.8605,167
20.0462,163
20.2320,181
20.4177,185
20.6035,191
20.7893,206
20.9750,200
21.1608,248
21.3465,530
21.5323,210
21.7180,183
21.9038,173
22.0896,181
22.2753,198
22.4611,187
22.6468,169
22.8326,201
23.0183,198
23.2041,169
23.3898,212
23.5756,206
23.7614,215
23.9471,206
24.1329,205
24.3186,236
24.5044,210
24.6901,186
24.8759,216
25.0616,186
25.2474,204
25.4332,205
25.6189,189
25.8047,189
25.9904,175
26.1762,182
26.3619,207
26.5477,189
26.7335,215
26.9192,194
27.1050,183
27.2907,218
27.4765,157
27.6622,172
27.8480,164
28.0337,182
28.2195,175
28.4053,167
28.5910,186
28.7768,157
28.9625,150
29.1483,185
29.3340,149
29.5198,156
29.7055,155
29.8913,178
30.0771,182
30.2628,180
30.4486,244
30.6343,141
30.8201,138
31.0058,148
31.1916,119
31.3774,167
31.5631,116
31.7489,126
31.9346,133
32.1204,125
32.3061,130
32.4919,147
32.6776,149
32.8634,133
33.0492,117
33.2349,114
33.4207,124
33.6064,123
33.7922,130
33.9779,120
34.1637,98
34.3494,116
34.5352,130
34.7210,149
34.9067,115
35.0925,118
35.2782,102
35.4640,107
35.6497,105
35.8355,105
36.0213,111
36.2070,95
36.3928,90
36.5785,100
36.7643,98
36.9500,102
37.1358,98
37.3215,89
37.5073,120
37.6931,109
37.8788,81
38.0646,91
38.2503,79
38.4361,89
38.6218,84
38.8076,69
38.9933,78
39.1791,79
39.3649,71
39.5506,69
39.7364,74
39.9221,66
40.1079,76
40.2936,80
40.4794,66
40.6652,77
40.8509,75
41.0367,92
41.2224,66
41.4082,83
41.5939,70
41.7797,72
41.9654,96
42.1512,59
42.3370,52
42.5227,79
42.7085,86
42.8942,66
43.0800,73
43.2657,93
43.4515,94
43.6372,90
43.8230,73
44.0088,68
44.1945,65
44.3803,72
44.5660,83
44.7518,81
44.9375,90
45.1233,74
45.3091,62
45.4948,72
45.6806,50
45.8663,61
46.0521,79
46.2378,72
46.4236,68
46.6093,75
46.7951,66
46.9809,65
47.1666,71
47.3524,74
47.5381,60
47.7239,58
47.9096,60
48.0954,57
48.2811,78
48.4669,58
48.6527,60
48.8384,60
49.0242,84
49.2099,76
49.3957,74
49.5814,69
49.7672,71
49.9530,59
50.1387,75
50.3245,62
50.5102,57
50.6960,57
50.8817,51
51.0675,64
51.2532,65
51.4390,63
51.6248,55
51.8105,68
51.9963,72
52.1820,60
52.3678,66
52.5535,61
52.7393,61
52.9250,37
53.1108,68
53.2966,69
53.4823,65
53.6681,62
53.8538,53
54.0396,69
54.2253,62
54.4111,57
54.5969,56
54.7826,55
54.9684,56
55.1541,49
55.3399,66
55.5256,57
55.7114,67
55.8971,58
56.0829,62
56.2687,56
56.4544,50
56.6402,64
56.8259,64
57.0117,55
57.1974,60
57.3832,63
57.5689,53
57.7547,66
57.9405,58
58.1262,46
58.3120,60
58.4977,41
58.6835,59
58.8692,58
59.0550,63
59.2408,68
59.4265,73
59.6123,54
59.7980,54
59.9838,58
60.0024,60

File: ML_20220720_1_SJD_4_LaB6-1min.uxd
; (content of file Y:\Sam\Apurva-07-20-2022\puck4\ML_20220718_1_SJD_0_LaB6-1min.raw)
_FILEVERSION = 3
_SAMPLE = ML_20220718_1_SJD_0_LaB6-1mi
_+SAMPLE =
_SITE = USA
_USER = Administrator
_GONIOMETER_CODE = 20
; Goniometer : D8 theta/2theta, stage : Unknown
_ATTACHMENTS_CODE = 0
_GONIOMETER_RADIUS = 200.5
_FIXED_DIVSLIT = 0.6
_FIXED_SAMPLESLIT = 0
_SOLLER_SLITS = 2
_FIXED_DETSLIT = 9.55
_MONOCHROMATOR = 0
; Incident beam monochromator : None
_SOLLER_SLITS_2 = N
_THIN_FILM = N
_BETA_FILTER = Y
_FIXED_ANTISLIT = 5.89
_ANALYZER_CODE = 0
; Received beam analyzer : None
_DATEMEASURED = "21-Jul-2022 03:00:33"
_WL_UNIT = A
_WL1 = 1.5406
_WL2 = 1.54439
_WL3 = 1.39222
_WLRATIO = 0.5
_ANODE = Cu
_V4_INF_CREATOR = XRDWizard
_V4_INF_CREATOR_VERSION = V2.9.0.22
_V4_INF_WIZARD_VERSION = V2.9.0.22
_V4_INF_WIZARD_ADDINS = V2.9.0.22
_V4_INF_WIZARD_DOCTYPE = XRD
_V4_INF_OSUSER = McQueenLab
_V4_INF_USER = Administrator
_V4_INF_SITE = USA
_V4_INF_SAMPLEID = ML_20220718_1_SJD_0_LaB6-1mi

; Data for range 1
_DRIVE = COUPLED
_STEPTIME = 4.23
_STEPSIZE = 0.0185756
_STEPMODE = C
_START = 5
_THETA = 2.5
_2THETA = 5
_KHI = 0
_PHI = 0
_X = 0
_Y = 0
_Z = 0
_DETECTOR = 5
; Detector type : Unknown
_DETECTORSLIT = unkn
_AUX1 = 0
_AUX2 = 0
_AUX3 = 0
_TIMESTARTED = 15
_TEMP_RATE = -1
_TEMP_DELAY = -1
_KV = 40
_MA = 40
_RANGE_WL = 1.5406
_3DPLANE = 0
_V4_ADDITIONALDETECTOR = 257
_V4_PSD2THETA = 3.4374
_V4_PSDCHANNEL1 = 0
_V4_PSDAPERTURE = 12.68
_V4_PSDTYPE = 5
_V4_PSDFIXED = 0
_V4_COUNTERS_MASK = 4096
_V4_DRIVES_MASK = 0
_V4_ENCODERS_MASK = 0
_2THETACOUNTS = 1
; 2THETA  PSD
   5.0000         97
   5.1858        102
   5.3715         72
   5.5573         63
   5.7430         74
   5.9288         60
   6.1145         82
   6.3003         55
   6.4860         57
   6.6718         62
   6.8576         61
   7.0433         59
   7.2291         57
   7.4148         63
   7.6006         50
   7.7863         63
   7.9721         65
   8.1579         74
   8.3436         80
   8.5294         73
   8.7151         61
   8.9009         75
   9.0866         68
   9.2724         71
   9.4581        101
   9.6439         55
   9.8297         80
  10.0154         81
  10.2012         90
  10.3869         80
  10.5727         72
  10.7584         87
  10.9442         73
  11.1299         78
  11.3157         70
  11.5015         82
  11.6872         71
  11.8730         95
  12.0587        102
  12.2445         86
  12.4302         59
  12.6160         78
  12.8018         76
  12.9875         78
  13.1733         68
  13.3590         67
  13.5448         74
  13.7305         64
  13.9163         56
  14.1020         67
  14.2878         76
  14.4736         65
  14.6593         39
  14.8451         57
  15.0308         78
  15.2166         60
  15.4023         47
  15.5881         71
  15.7738         51
  15.9596         68
  16.1454         57
  16.3311         57
  16.5169         70
  16.7026         69
  16.8884         71
  17.0741         66
  17.2599         63
  17.4457         47
  17.6314         51
  17.8172         54
  18.0029         72
  18.1887         72
  18.3744         72
  18.5602         64
  18.7459         57
  18.9317         53
  19.1175         41
  19.3032         71
  19.4890         72
  19.6747         63
  19.8605         67
  20.0462         58
  20.2320         71
  20.4177         65
  20.6035         54
  20.7893         85
  20.9750         68
  21.1608         81
  21.3465        189
  21.5323         78
  21.7180         70
  21.9038         56
  22.0896         76
  22.2753         78
  22.4611         64
  22.6468         67
  22.8326         77
  23.0183         83
  23.2041         76
  23.3898         70
  23.5756         81
  23.7614         72
  23.9471         82
  24.1329         77
  24.3186         81
  24.5044         72
  24.6901         68
  24.8759         71
  25.0616         81
  25.2474         73
  25.4332         54
  25.6189         74
  25.8047         80
  25.9904         79
  26.1762         75
  26.3619         67
  26.5477         76
  26.7335         69
  26.9192         59
  27.1050         73
  27.2907         75
  27.4765         63
  27.6622         69
  27.8480         63
  28.0337         67
  28.2195         66
  28.4053         59
  28.5910         43
  28.7768         60
  28.9625         52
  29.1483         53
  29.3340         47
  29.5198         51
  29.7055         55
  29.8913         64
  30.0771         72
  30.2628         61
  30.4486         74
  30.6343         60
  30.8201         49
  31.0058         54
  31.1916         53
  31.3774         38
  31.5631         63
  31.7489         40
  31.9346         52
  32.1204         44
  32.3061         51
  32.4919         56
  32.6776         47
  32.8634         57
  33.0492         61
  33.2349         38
  33.4207         45
  33.6064         48
  33.7922         48
  33.9779         40
  34.1637         27
  34.3494         44
  34.5352         44
  34.7210         60
  34.9067         42
  35.0925         37
  35.2782         45
  35.4640         37
  35.6497         41
  35.8355         31
  36.0213         41
  36.2070         31
  36.3928         39
  36.5785         33
  36.7643         26
  36.9500         28
  37.1358         35
  37.3215         30
  37.5073         36
  37.6931         24
  37.8788         36
  38.0646         29
  38.2503         28
  38.4361         32
  38.6218         29
  38.8076         26
  38.9933         28
  39.1791         35
  39.3649         27
  39.5506         28
  39.7364         29
  39.9221         30
  40.1079         26
  40.2936         32
  40.4794         23
  40.6652         24
  40.8509         30
  41.0367         25
  41.2224         27
  41.4082         34
  41.5939         36
  41.7797         30
  41.9654         28
  42.1512         32
  42.3370         16
  42.5227         31
  42.7085         33
  42.8942         20
  43.0800         21
  43.2657         29
  43.4515         36
  43.6372         34
  43.8230         25
  44.0088         35
  44.1945         27
  44.3803         26
  44.5660         28
  44.7518         20
  44.9375         26
  45.1233         34
  45.3091         27
  45.4948         20
  45.6806         30
  45.8663         24
  46.0521         25
  46.2378         33
  46.4236         27
  46.6093         17
  46.7951         12
  46.9809         24
  47.1666         23
  47.3524         24
  47.5381         15
  47.7239         20
  47.9096         33
  48.0954         18
  48.2811         20
  48.4669         22
  48.6527         22
  48.8384         24
  49.0242         28
  49.2099         28
  49.3957         31
  49.5814         27
  49.7672         22
  49.9530         23
  50.1387         21
  50.3245         23
  50.5102         25
  50.6960         37
  50.8817         25
  51.0675         26
  51.2532         21
  51.4390         29
  51.6248         26
  51.8105         27
  51.9963         25
  52.1820         27
  52.3678         24
  52.5535         20
  52.7393         17
  52.9250         20
  53.1108         25
  53.2966         18
  53.4823         25
  53.6681         24
  53.8538         21
  54.0396         26
  54.2253         26
  54.4111         19
  54.5969         19
  54.7826         20
  54.9684         14
  55.1541         21
  55.3399         16
  55.5256         25
  55.7114         21
  55.8971         21
  56.0829         23
  56.2687         29
  56.4544         19
  56.6402         20
  56.8259         26
  57.0117         19
  57.1974         25
  57.3832         18
  57.5689         20
  57.7547         26
  57.9405         15
  58.1262         30
  58.3120         24
  58.4977         18
  58.6835         17
  58.8692         13
  59.0550         26
  59.2408         18
  59.4265         13
  59.6123         17
  59.7980         25
  59.9838         24
  60.0024         20