Folder: xrd_clustering/notebooks/data/xrd_data (part 36)

File: ML_20220720_33_SJD_4_LaB6-1min.uxd
; (content of file Y:\Sam\Apurva-07-20-2022\puck2\ML_20220720_33_SJD_0_LaB6-1min.raw)
_FILEVERSION = 3
_SAMPLE = ML_20220720_33_SJD_0_LaB6-1mi
_+SAMPLE =
_SITE = USA
_USER = Administrator
_GONIOMETER_CODE = 20
; Goniometer : D8 theta/2theta, stage : Unknown
_ATTACHMENTS_CODE = 0
_GONIOMETER_RADIUS = 200.5
_FIXED_DIVSLIT = 0.6
_FIXED_SAMPLESLIT = 0
_SOLLER_SLITS = 2
_FIXED_DETSLIT = 9.55
_MONOCHROMATOR = 0
; Incident beam monochromator : None
_SOLLER_SLITS_2 = N
_THIN_FILM = N
_BETA_FILTER = Y
_FIXED_ANTISLIT = 5.89
_ANALYZER_CODE = 0
; Received beam analyzer : None
_DATEMEASURED = "25-Jul-2022 18:48:00"
_WL_UNIT = A
_WL1 = 1.5406
_WL2 = 1.54439
_WL3 = 1.39222
_WLRATIO = 0.5
_ANODE = Cu
_V4_INF_CREATOR = XRDWizard
_V4_INF_CREATOR_VERSION = V2.9.0.22
_V4_INF_WIZARD_VERSION = V2.9.0.22
_V4_INF_WIZARD_ADDINS = V2.9.0.22
_V4_INF_WIZARD_DOCTYPE = XRD
_V4_INF_OSUSER = McQueenLab
_V4_INF_USER = Administrator
_V4_INF_SITE = USA
_V4_INF_SAMPLEID = ML_20220720_33_SJD_0_LaB6-1mi

; Data for range 1
_DRIVE = COUPLED
_STEPTIME = 4.23
_STEPSIZE = 0.0185756
_STEPMODE = C
_START = 5
_THETA = 2.5
_2THETA = 5
_KHI = 0
_PHI = 0
_X = 0
_Y = 0
_Z = 0
_DETECTOR = 5
; Detector type : Unknown
_DETECTORSLIT = unkn
_AUX1 = 0
_AUX2 = 0
_AUX3 = 0
_TIMESTARTED = 15
_TEMP_RATE = -1
_TEMP_DELAY = -1
_KV = 40
_MA = 40
_RANGE_WL = 1.5406
_3DPLANE = 0
_V4_ADDITIONALDETECTOR = 257
_V4_PSD2THETA = 3.3733
_V4_PSDCHANNEL1 = 0
_V4_PSDAPERTURE = 12.68
_V4_PSDTYPE = 5
_V4_PSDFIXED = 0
_V4_COUNTERS_MASK = 4096
_V4_DRIVES_MASK = 0
_V4_ENCODERS_MASK = 0
_2THETACOUNTS = 1
; 2THETA  PSD
   5.0000        115
   5.1858         94
   5.3715        100
   5.5573         78
   5.7430         75
   5.9288         74
   6.1145         60
   6.3003         69
   6.4860         53
   6.6718         72
   6.8576         57
   7.0433         61
   7.2291         65
   7.4148         57
   7.6006         64
   7.7863         57
   7.9721         74
   8.1579         65
   8.3436         74
   8.5294         63
   8.7151         79
   8.9009         78
   9.0866         79
   9.2724         63
   9.4581         85
   9.6439         75
   9.8297         97
  10.0154        101
  10.2012         83
  10.3869         89
  10.5727         85
  10.7584         96
  10.9442         85
  11.1299         90
  11.3157         76
  11.5015         79
  11.6872         78
  11.8730         86
  12.0587         80
  12.2445         90
  12.4302        100
  12.6160         69
  12.8018         75
  12.9875         84
  13.1733         71
  13.3590         76
  13.5448         80
  13.7305         78
  13.9163         72
  14.1020         71
  14.2878         60
  14.4736         56
  14.6593         69
  14.8451         56
  15.0308         52
  15.2166         61
  15.4023         57
  15.5881         50
  15.7738         65
  15.9596         55
  16.1454         63
  16.3311         60
  16.5169         60
  16.7026         69
  16.8884         66
  17.0741         57
  17.2599         64
  17.4457         74
  17.6314         54
  17.8172         65
  18.0029         69
  18.1887         61
  18.3744         62
  18.5602         65
  18.7459         63
  18.9317         69
  19.1175         64
  19.3032         62
  19.4890         61
  19.6747         70
  19.8605         48
  20.0462         59
  20.2320         66
  20.4177         75
  20.6035         73
  20.7893         59
  20.9750         55
  21.1608         85
  21.3465        181
  21.5323         77
  21.7180         81
  21.9038         69
  22.0896         80
  22.2753         63
  22.4611         65
  22.6468         85
  22.8326         69
  23.0183         68
  23.2041         65
  23.3898         71
  23.5756         72
  23.7614         78
  23.9471         84
  24.1329         64
  24.3186         82
  24.5044         73
  24.6901         73
  24.8759         66
  25.0616         71
  25.2474         74
  25.4332         53
  25.6189         78
  25.8047         65
  25.9904         76
  26.1762         69
  26.3619         80
  26.5477         68
  26.7335         66
  26.9192         77
  27.1050         71
  27.2907         83
  27.4765         72
  27.6622         67
  27.8480         68
  28.0337         49
  28.2195         66
  28.4053         59
  28.5910         56
  28.7768         73
  28.9625         65
  29.1483         66
  29.3340         65
  29.5198         50
  29.7055         66
  29.8913         59
  30.0771         55
  30.2628         76
  30.4486         94
  30.6343         59
  30.8201         50
  31.0058         54
  31.1916         41
  31.3774         50
  31.5631         40
  31.7489         57
  31.9346         46
  32.1204         74
  32.3061         40
  32.4919         63
  32.6776         66
  32.8634         60
  33.0492         38
  33.2349         45
  33.4207         29
  33.6064         37
  33.7922         27
  33.9779         41
  34.1637         37
  34.3494         62
  34.5352         46
  34.7210         46
  34.9067         56
  35.0925         40
  35.2782         45
  35.4640         46
  35.6497         37
  35.8355         51
  36.0213         42
  36.2070         33
  36.3928         46
  36.5785         34
  36.7643         39
  36.9500         26
  37.1358         30
  37.3215         29
  37.5073         37
  37.6931         34
  37.8788         40
  38.0646         27
  38.2503         27
  38.4361         35
  38.6218         38
  38.8076         36
  38.9933         27
  39.1791         24
  39.3649         37
  39.5506         24
  39.7364         28
  39.9221         22
  40.1079         29
  40.2936         27
  40.4794         26
  40.6652         35
  40.8509         24
  41.0367         29
  41.2224         25
  41.4082         21
  41.5939         30
  41.7797         27
  41.9654         25
  42.1512         26
  42.3370         28
  42.5227         40
  42.7085         34
  42.8942         16
  43.0800         23
  43.2657         32
  43.4515         25
  43.6372         31
  43.8230         27
  44.0088         30
  44.1945         22
  44.3803         30
  44.5660         38
  44.7518         29
  44.9375         19
  45.1233         29
  45.3091         16
  45.4948         22
  45.6806         28
  45.8663         26
  46.0521         22
  46.2378         23
  46.4236         29
  46.6093         23
  46.7951         17
  46.9809         29
  47.1666         20
  47.3524         32
  47.5381         30
  47.7239         24
  47.9096         21
  48.0954         24
  48.2811         19
  48.4669         31
  48.6527         18
  48.8384         17
  49.0242         35
  49.2099         26
  49.3957         21
  49.5814         17
  49.7672         19
  49.9530         26
  50.1387         23
  50.3245         18
  50.5102         23
  50.6960         23
  50.8817         26
  51.0675         23
  51.2532         30
  51.4390         25
  51.6248         17
  51.8105         20
  51.9963         26
  52.1820         20
  52.3678         19
  52.5535         13
  52.7393         17
  52.9250         24
  53.1108         16
  53.2966         25
  53.4823         24
  53.6681         19
  53.8538         18
  54.0396         32
  54.2253         21
  54.4111         22
  54.5969         21
  54.7826         23
  54.9684         18
  55.1541         27
  55.3399         22
  55.5256         15
  55.7114         23
  55.8971         17
  56.0829         24
  56.2687         23
  56.4544         16
  56.6402         23
  56.8259         28
  57.0117         26
  57.1974         17
  57.3832         16
  57.5689         24
  57.7547         16
  57.9405         17
  58.1262         19
  58.3120         19
  58.4977         21
  58.6835         22
  58.8692         21
  59.0550         19
  59.2408         18
  59.4265         21
  59.6123         13
  59.7980         22
  59.9838         14
  60.0024         17

File: ML_20220720_34_SJD_4_LaB6-1min.csv
;,2THETA,
5.0000,119
5.1858,105
5.3715,79
5.5573,71
5.7430,80
5.9288,74
6.1145,63
6.3003,60
6.4860,59
6.6718,58
6.8576,62
7.0433,63
7.2291,49
7.4148,48
7.6006,62
7.7863,66
7.9721,71
8.1579,74
8.3436,77
8.5294,69
8.7151,71
8.9009,63
9.0866,72
9.2724,84
9.4581,83
9.6439,70
9.8297,82
10.0154,91
10.2012,96
10.3869,99
10.5727,96
10.7584,80
10.9442,87
11.1299,88
11.3157,86
11.5015,98
11.6872,102
11.8730,87
12.0587,90
12.2445,76
12.4302,84
12.6160,96
12.8018,75
12.9875,83
13.1733,64
13.3590,82
13.5448,77
13.7305,64
13.9163,75
14.1020,66
14.2878,67
14.4736,52
14.6593,63
14.8451,59
15.0308,67
15.2166,59
15.4023,59
15.5881,60
15.7738,64
15.9596,49
16.1454,48
16.3311,70
16.5169,63
16.7026,72
16.8884,41
17.0741,53
17.2599,65
17.4457,59
17.6314,63
17.8172,56
18.0029,63
18.1887,56
18.3744,73
18.5602,66
18.7459,58
18.9317,57
19.1175,48
19.3032,57
19.4890,62
19.6747,70
19.8605,55
20.0462,57
20.2320,75
20.4177,79
20.6035,73
20.7893,79
20.9750,71
21.1608,80
21.3465,191
21.5323,77
21.7180,79
21.9038,54
22.0896,74
22.2753,69
22.4611,85
22.6468,67
22.8326,85
23.0183,95
23.2041,91
23.3898,85
23.5756,65
23.7614,80
23.9471,74
24.1329,82
24.3186,79
24.5044,84
24.6901,53
24.8759,75
25.0616,91
25.2474,53
25.4332,77
25.6189,71
25.8047,70
25.9904,62
26.1762,74
26.3619,65
26.5477,86
26.7335,76
26.9192,56
27.1050,60
27.2907,67
27.4765,67
27.6622,62
27.8480,78
28.0337,67
28.2195,59
28.4053,72
28.5910,62
28.7768,67
28.9625,53
29.1483,64
29.3340,66
29.5198,54
29.7055,61
29.8913,56
30.0771,58
30.2628,64
30.4486,98
30.6343,49
30.8201,52
31.0058,51
31.1916,66
31.3774,31
31.5631,47
31.7489,40
31.9346,45
32.1204,38
32.3061,44
32.4919,55
32.6776,54
32.8634,47
33.0492,47
33.2349,46
33.4207,49
33.6064,41
33.7922,37
33.9779,41
34.1637,39
34.3494,45
34.5352,48
34.7210,41
34.9067,51
35.0925,43
35.2782,40
35.4640,32
35.6497,35
35.8355,43
36.0213,40
36.2070,24
36.3928,44
36.5785,29
36.7643,39
36.9500,29
37.1358,23
37.3215,35
37.5073,41
37.6931,43
37.8788,33
38.0646,23
38.2503,33
38.4361,33
38.6218,30
38.8076,28
38.9933,20
39.1791,35
39.3649,33
39.5506,31
39.7364,32
39.9221,31
40.1079,30
40.2936,31
40.4794,18
40.6652,25
40.8509,25
41.0367,27
41.2224,22
41.4082,28
41.5939,28
41.7797,31
41.9654,25
42.1512,31
42.3370,27
42.5227,19
42.7085,32
42.8942,33
43.0800,28
43.2657,38
43.4515,39
43.6372,29
43.8230,23
44.0088,25
44.1945,34
44.3803,24
44.5660,23
44.7518,32
44.9375,28
45.1233,26
45.3091,25
45.4948,27
45.6806,27
45.8663,35
46.0521,29
46.2378,22
46.4236,24
46.6093,28
46.7951,22
46.9809,22
47.1666,27
47.3524,21
47.5381,22
47.7239,23
47.9096,23
48.0954,28
48.2811,27
48.4669,21
48.6527,15
48.8384,28
49.0242,33
49.2099,27
49.3957,22
49.5814,26
49.7672,16
49.9530,22
50.1387,26
50.3245,29
50.5102,26
50.6960,17
50.8817,26
51.0675,20
51.2532,18
51.4390,24
51.6248,21
51.8105,26
51.9963,26
52.1820,22
52.3678,18
52.5535,31
52.7393,20
52.9250,24
53.1108,28
53.2966,23
53.4823,17
53.6681,16
53.8538,16
54.0396,26
54.2253,19
54.4111,20
54.5969,20
54.7826,30
54.9684,24
55.1541,24
55.3399,27
55.5256,20
55.7114,26
55.8971,27
56.0829,11
56.2687,39
56.4544,26
56.6402,23
56.8259,13
57.0117,27
57.1974,21
57.3832,20
57.5689,25
57.7547,16
57.9405,29
58.1262,20
58.3120,17
58.4977,15
58.6835,16
58.8692,16
59.0550,23
59.2408,13
59.4265,19
59.6123,9
59.7980,18
59.9838,25
60.0024,15

File: ML_20220720_35_SJD_4_LaB6-1min.csv
;,2THETA,
5.0000,100
5.1858,82
5.3715,108
5.5573,77
5.7430,71
5.9288,88
6.1145,72
6.3003,65
6.4860,65
6.6718,56
6.8576,54
7.0433,55
7.2291,52
7.4148,55
7.6006,62
7.7863,56
7.9721,79
8.1579,58
8.3436,77
8.5294,80
8.7151,83
8.9009,80
9.0866,63
9.2724,80
9.4581,100
9.6439,72
9.8297,86
10.0154,86
10.2012,99
10.3869,88
10.5727,102
10.7584,84
10.9442,86
11.1299,77
11.3157,81
11.5015,90
11.6872,72
11.8730,83
12.0587,83
12.2445,84
12.4302,73
12.6160,79
12.8018,82
12.9875,75
13.1733,75
13.3590,68
13.5448,69
13.7305,61
13.9163,64
14.1020,68
14.2878,63
14.4736,73
14.6593,58
14.8451,57
15.0308,72
15.2166,59
15.4023,43
15.5881,59
15.7738,59
15.9596,53
16.1454,62
16.3311,56
16.5169,63
16.7026,58
16.8884,51
17.0741,52
17.2599,56
17.4457,53
17.6314,67
17.8172,68
18.0029,65
18.1887,63
18.3744,53
18.5602,65
18.7459,81
18.9317,66
19.1175,53
19.3032,64
19.4890,67
19.6747,63
19.8605,55
20.0462,53
20.2320,65
20.4177,66
20.6035,75
20.7893,65
20.9750,60
21.1608,81
21.3465,197
21.5323,74
21.7180,73
21.9038,68
22.0896,73
22.2753,67
22.4611,69
22.6468,79
22.8326,94
23.0183,57
23.2041,85
23.3898,76
23.5756,85
23.7614,81
23.9471,85
24.1329,78
24.3186,73
24.5044,74
24.6901,74
24.8759,81
25.0616,80
25.2474,81
25.4332,82
25.6189,70
25.8047,65
25.9904,73
26.1762,75
26.3619,71
26.5477,71
26.7335,76
26.9192,76
27.1050,73
27.2907,90
27.4765,70
27.6622,70
27.8480,67
28.0337,60
28.2195,69
28.4053,54
28.5910,61
28.7768,59
28.9625,51
29.1483,70
29.3340,62
29.5198,59
29.7055,52
29.8913,50
30.0771,64
30.2628,59
30.4486,106
30.6343,60
30.8201,63
31.0058,47
31.1916,50
31.3774,54
31.5631,52
31.7489,44
31.9346,58
32.1204,56
32.3061,45
32.4919,53
32.6776,45
32.8634,52
33.0492,41
33.2349,49
33.4207,39
33.6064,43
33.7922,46
33.9779,31
34.1637,50
34.3494,45
34.5352,41
34.7210,43
34.9067,54
35.0925,31
35.2782,36
35.4640,48
35.6497,46
35.8355,37
36.0213,39
36.2070,27
36.3928,29
36.5785,43
36.7643,34
36.9500,31
37.1358,29
37.3215,37
37.5073,42
37.6931,27
37.8788,31
38.0646,37
38.2503,35
38.4361,33
38.6218,40
38.8076,26
38.9933,23
39.1791,19
39.3649,35
39.5506,31
39.7364,32
39.9221,26
40.1079,35
40.2936,23
40.4794,25
40.6652,31
40.8509,33
41.0367,22
41.2224,25
41.4082,30
41.5939,30
41.7797,27
41.9654,30
42.1512,28
42.3370,40
42.5227,25
42.7085,23
42.8942,21
43.0800,23
43.2657,23
43.4515,32
43.6372,38
43.8230,29
44.0088,21
44.1945,24
44.3803,27
44.5660,24
44.7518,33
44.9375,26
45.1233,28
45.3091,26
45.4948,23
45.6806,33
45.8663,22
46.0521,33
46.2378,29
46.4236,26
46.6093,27
46.7951,26
46.9809,22
47.1666,33
47.3524,25
47.5381,16
47.7239,23
47.9096,26
48.0954,23
48.2811,33
48.4669,23
48.6527,24
48.8384,29
49.0242,28
49.2099,24
49.3957,20
49.5814,20
49.7672,15
49.9530,15
50.1387,20
50.3245,13
50.5102,26
50.6960,26
50.8817,26
51.0675,25
51.2532,20
51.4390,32
51.6248,27
51.8105,24
51.9963,35
52.1820,19
52.3678,26
52.5535,22
52.7393,28
52.9250,23
53.1108,27
53.2966,18
53.4823,14
53.6681,27
53.8538,22
54.0396,26
54.2253,16
54.4111,21
54.5969,22
54.7826,14
54.9684,19
55.1541,26
55.3399,22
55.5256,29
55.7114,25
55.8971,20
56.0829,19
56.2687,27
56.4544,23
56.6402,14
56.8259,14
57.0117,26
57.1974,19
57.3832,22
57.5689,25
57.7547,25
57.9405,19
58.1262,23
58.3120,23
58.4977,20
58.6835,19
58.8692,19
59.0550,17
59.2408,17
59.4265,25
59.6123,22
59.7980,18
59.9838,16
60.0024,15

File: ML_20220720_36_SJD_4_LaB6-1min.uxd
; (content of file Y:\Sam\Apurva-07-20-2022\puck2\ML_20220720_36_SJD_0_LaB6-1min.raw)
_FILEVERSION = 3
_SAMPLE = ML_20220720_36_SJD_0_LaB6-1mi
_+SAMPLE =
_SITE = USA
_USER = Administrator
_GONIOMETER_CODE = 20
; Goniometer : D8 theta/2theta, stage : Unknown
_ATTACHMENTS_CODE = 0
_GONIOMETER_RADIUS = 200.5
_FIXED_DIVSLIT = 0.6
_FIXED_SAMPLESLIT = 0
_SOLLER_SLITS = 2
_FIXED_DETSLIT = 9.55
_MONOCHROMATOR = 0
; Incident beam monochromator : None
_SOLLER_SLITS_2 = N
_THIN_FILM = N
_BETA_FILTER = Y
_FIXED_ANTISLIT = 5.89
_ANALYZER_CODE = 0
; Received beam analyzer : None
_DATEMEASURED = "25-Jul-2022 18:53:38"
_WL_UNIT = A
_WL1 = 1.5406
_WL2 = 1.54439
_WL3 = 1.39222
_WLRATIO = 0.5
_ANODE = Cu
_V4_INF_CREATOR = XRDWizard
_V4_INF_CREATOR_VERSION = V2.9.0.22
_V4_INF_WIZARD_VERSION = V2.9.0.22
_V4_INF_WIZARD_ADDINS = V2.9.0.22
_V4_INF_WIZARD_DOCTYPE = XRD
_V4_INF_OSUSER = McQueenLab
_V4_INF_USER = Administrator
_V4_INF_SITE = USA
_V4_INF_SAMPLEID = ML_20220720_36_SJD_0_LaB6-1mi

; Data for range 1
_DRIVE = COUPLED
_STEPTIME = 4.23
_STEPSIZE = 0.0185756
_STEPMODE = C
_START = 5
_THETA = 2.5
_2THETA = 5
_KHI = 0
_PHI = 0
_X = 0
_Y = 0
_Z = 0
_DETECTOR = 5
; Detector type : Unknown
_DETECTORSLIT = unkn
_AUX1 = 0
_AUX2 = 0
_AUX3 = 0
_TIMESTARTED = 15
_TEMP_RATE = -1
_TEMP_DELAY = -1
_KV = 40
_MA = 40
_RANGE_WL = 1.5406
_3DPLANE = 0
_V4_ADDITIONALDETECTOR = 257
_V4_PSD2THETA = 3.4354
_V4_PSDCHANNEL1 = 0
_V4_PSDAPERTURE = 12.68
_V4_PSDTYPE = 5
_V4_PSDFIXED = 0
_V4_COUNTERS_MASK = 4096
_V4_DRIVES_MASK = 0
_V4_ENCODERS_MASK = 0
_2THETACOUNTS = 1
; 2THETA  PSD
   5.0000        106
   5.1858         86
   5.3715         98
   5.5573         83
   5.7430         89
   5.9288         84
   6.1145         67
   6.3003         76
   6.4860         58
   6.6718         73
   6.8576         66
   7.0433         67
   7.2291         66
   7.4148         57
   7.6006         54
   7.7863         60
   7.9721         67
   8.1579         79
   8.3436         70
   8.5294         73
   8.7151         80
   8.9009         72
   9.0866         76
   9.2724         90
   9.4581         79
   9.6439         87
   9.8297         84
  10.0154         79
  10.2012         93
  10.3869         82
  10.5727         91
  10.7584         88
  10.9442         74
  11.1299         95
  11.3157         91
  11.5015         91
  11.6872         79
  11.8730         86
  12.0587         85
  12.2445         69
  12.4302         87
  12.6160         69
  12.8018         69
  12.9875         77
  13.1733         66
  13.3590         78
  13.5448         55
  13.7305         70
  13.9163         70
  14.1020         76
  14.2878         78
  14.4736         59
  14.6593         64
  14.8451         61
  15.0308         64
  15.2166         69
  15.4023         67
  15.5881         52
  15.7738         79
  15.9596         59
  16.1454         45
  16.3311         48
  16.5169         64
  16.7026         62
  16.8884         62
  17.0741         69
  17.2599         57
  17.4457         46
  17.6314         63
  17.8172         55
  18.0029         56
  18.1887         52
  18.3744         66
  18.5602         65
  18.7459         62
  18.9317         63
  19.1175         59
  19.3032         61
  19.4890         65
  19.6747         67
  19.8605         70
  20.0462         63
  20.2320         64
  20.4177         59
  20.6035         72
  20.7893         77
  20.9750         72
  21.1608         82
  21.3465        163
  21.5323         80
  21.7180         86
  21.9038         83
  22.0896         79
  22.2753         74
  22.4611         73
  22.6468         87
  22.8326         65
  23.0183         79
  23.2041         77
  23.3898         78
  23.5756         72
  23.7614         86
  23.9471         78
  24.1329         87
  24.3186         78
  24.5044         88
  24.6901         83
  24.8759         77
  25.0616         83
  25.2474         72
  25.4332         63
  25.6189         70
  25.8047         68
  25.9904         73
  26.1762         78
  26.3619         65
  26.5477         66
  26.7335         72
  26.9192         60
  27.1050         68
  27.2907         75
  27.4765         79
  27.6622         80
  27.8480         78
  28.0337         72
  28.2195         55
  28.4053         60
  28.5910         58
  28.7768         54
  28.9625         62
  29.1483         61
  29.3340         46
  29.5198         55
  29.7055         56
  29.8913         48
  30.0771         73
  30.2628         58
  30.4486         82
  30.6343         49
  30.8201         46
  31.0058         54
  31.1916         48
  31.3774         64
  31.5631         54
  31.7489         48
  31.9346         46
  32.1204         42
  32.3061         41
  32.4919         59
  32.6776         47
  32.8634         65
  33.0492         42
  33.2349         35
  33.4207         43
  33.6064         44
  33.7922         45
  33.9779         42
  34.1637         36
  34.3494         40
  34.5352         51
  34.7210         48
  34.9067         46
  35.0925         47
  35.2782         44
  35.4640         43
  35.6497         31
  35.8355         30
  36.0213         33
  36.2070         24
  36.3928         37
  36.5785         31
  36.7643         36
  36.9500         36
  37.1358         38
  37.3215         41
  37.5073         52
  37.6931         32
  37.8788         20
  38.0646         32
  38.2503         30
  38.4361         30
  38.6218         36
  38.8076         42
  38.9933         35
  39.1791         27
  39.3649         33
  39.5506         35
  39.7364         31
  39.9221         24
  40.1079         32
  40.2936         39
  40.4794         27
  40.6652         29
  40.8509         29
  41.0367         33
  41.2224         30
  41.4082         21
  41.5939         30
  41.7797         31
  41.9654         26
  42.1512         29
  42.3370         28
  42.5227         35
  42.7085         32
  42.8942         39
  43.0800         32
  43.2657         48
  43.4515         32
  43.6372         37
  43.8230         23
  44.0088         29
  44.1945         24
  44.3803         35
  44.5660         28
  44.7518         24
  44.9375         26
  45.1233         32
  45.3091         24
  45.4948         26
  45.6806         27
  45.8663         27
  46.0521         23
  46.2378         25
  46.4236         33
  46.6093         20
  46.7951         32
  46.9809         32
  47.1666         13
  47.3524         14
  47.5381         15
  47.7239         24
  47.9096         23
  48.0954         19
  48.2811         19
  48.4669         21
  48.6527         24
  48.8384         27
  49.0242         28
  49.2099         21
  49.3957         27
  49.5814         22
  49.7672         21
  49.9530         30
  50.1387         23
  50.3245         21
  50.5102         17
  50.6960         21
  50.8817         21
  51.0675         24
  51.2532         21
  51.4390         22
  51.6248         24
  51.8105         26
  51.9963         26
  52.1820         24
  52.3678         23
  52.5535         28
  52.7393         24
  52.9250         23
  53.1108         21
  53.2966         26
  53.4823         22
  53.6681         19
  53.8538         24
  54.0396         18
  54.2253         23
  54.4111         26
  54.5969         18
  54.7826         17
  54.9684         20
  55.1541         24
  55.3399         15
  55.5256         15
  55.7114         18
  55.8971         13
  56.0829         20
  56.2687         19
  56.4544         16
  56.6402         23
  56.8259         21
  57.0117         18
  57.1974         13
  57.3832         20
  57.5689         23
  57.7547         24
  57.9405         15
  58.1262         21
  58.3120         25
  58.4977         26
  58.6835         12
  58.8692         19
  59.0550         20
  59.2408         25
  59.4265         23
  59.6123         27
  59.7980         24
  59.9838         25
  60.0024         24

File: ML_20220720_37_SJD_4_LaB6-1min.csv
;,2THETA,
5.0000,80
5.1858,102
5.3715,100
5.5573,70
5.7430,81
5.9288,75
6.1145,61
6.3003,81
6.4860,93
6.6718,56
6.8576,65
7.0433,62
7.2291,71
7.4148,59
7.6006,45
7.7863,60
7.9721,57
8.1579,87
8.3436,77
8.5294,51
8.7151,63
8.9009,72
9.0866,80
9.2724,75
9.4581,92
9.6439,71
9.8297,90
10.0154,77
10.2012,82
10.3869,83
10.5727,88
10.7584,94
10.9442,87
11.1299,101
11.3157,91
11.5015,83
11.6872,93
11.8730,85
12.0587,82
12.2445,77
12.4302,81
12.6160,76
12.8018,73
12.9875,69
13.1733,74
13.3590,72
13.5448,65
13.7305,69
13.9163,53
14.1020,61
14.2878,52
14.4736,62
14.6593,59
14.8451,71
15.0308,60
15.2166,59
15.4023,47
15.5881,58
15.7738,62
15.9596,64
16.1454,57
16.3311,49
16.5169,63
16.7026,73
16.8884,67
17.0741,49
17.2599,59
17.4457,49
17.6314,60
17.8172,63
18.0029,67
18.1887,52
18.3744,64
18.5602,64
18.7459,63
18.9317,50
19.1175,69
19.3032,63
19.4890,67
19.6747,66
19.8605,73
20.0462,54
20.2320,66
20.4177,64
20.6035,56
20.7893,80
20.9750,68
21.1608,82
21.3465,176
21.5323,76
21.7180,71
21.9038,73
22.0896,74
22.2753,85
22.4611,58
22.6468,69
22.8326,65
23.0183,75
23.2041,73
23.3898,75
23.5756,84
23.7614,73
23.9471,70
24.1329,70
24.3186,65
24.5044,63
24.6901,80
24.8759,73
25.0616,71
25.2474,79
25.4332,66
25.6189,63
25.8047,64
25.9904,85
26.1762,75
26.3619,68
26.5477,65
26.7335,72
26.9192,81
27.1050,61
27.2907,68
27.4765,74
27.6622,61
27.8480,79
28.0337,56
28.2195,63
28.4053,69
28.5910,56
28.7768,74
28.9625,60
29.1483,65
29.3340,64
29.5198,69
29.7055,50
29.8913,71
30.0771,55
30.2628,64
30.4486,77
30.6343,57
30.8201,56
31.0058,61
31.1916,54
31.3774,48
31.5631,40
31.7489,61
31.9346,47
32.1204,46
32.3061,52
32.4919,54
32.6776,50
32.8634,37
33.0492,37
33.2349,42
33.4207,50
33.6064,38
33.7922,39
33.9779,46
34.1637,44
34.3494,44
34.5352,48
34.7210,54
34.9067,37
35.0925,30
35.2782,42
35.4640,44
35.6497,29
35.8355,31
36.0213,34
36.2070,34
36.3928,37
36.5785,47
36.7643,24
36.9500,35
37.1358,40
37.3215,27
37.5073,40
37.6931,24
37.8788,33
38.0646,26
38.2503,26
38.4361,36
38.6218,27
38.8076,30
38.9933,29
39.1791,23
39.3649,30
39.5506,23
39.7364,28
39.9221,34
40.1079,36
40.2936,17
40.4794,31
40.6652,40
40.8509,27
41.0367,28
41.2224,32
41.4082,29
41.5939,32
41.7797,23
41.9654,28
42.1512,25
42.3370,30
42.5227,22
42.7085,29
42.8942,30
43.0800,30
43.2657,40
43.4515,35
43.6372,42
43.8230,37
44.0088,32
44.1945,28
44.3803,26
44.5660,30
44.7518,33
44.9375,23
45.1233,24
45.3091,26
45.4948,22
45.6806,26
45.8663,27
46.0521,19
46.2378,32
46.4236,29
46.6093,22
46.7951,24
46.9809,20
47.1666,29
47.3524,25
47.5381,33
47.7239,14
47.9096,29
48.0954,25
48.2811,29
48.4669,24
48.6527,27
48.8384,21
49.0242,27
49.2099,24
49.3957,24
49.5814,22
49.7672,16
49.9530,26
50.1387,31
50.3245,27
50.5102,14
50.6960,18
50.8817,15
51.0675,33
51.2532,20
51.4390,35
51.6248,24
51.8105,33
51.9963,26
52.1820,19
52.3678,18
52.5535,16
52.7393,18
52.9250,25
53.1108,26
53.2966,18
53.4823,16
53.6681,17
53.8538,20
54.0396,22
54.2253,25
54.4111,18
54.5969,22
54.7826,21
54.9684,20
55.1541,26
55.3399,26
55.5256,24
55.7114,18
55.8971,20
56.0829,20
56.2687,26
56.4544,21
56.6402,17
56.8259,23
57.0117,23
57.1974,19
57.3832,22
57.5689,19
57.7547,33
57.9405,23
58.1262,15
58.3120,13
58.4977,16
58.6835,16
58.8692,25
59.0550,15
59.2408,20
59.4265,17
59.6123,26
59.7980,13
59.9838,17
60.0024,19