Folder: xrd_clustering/notebooks/data/xrd_data (part 34)

File: ML_20220720_25_SJD_4_LaB6-1min.csv
;,2THETA,
5.0000,88
5.1858,114
5.3715,92
5.5573,83
5.7430,77
5.9288,84
6.1145,62
6.3003,67
6.4860,56
6.6718,70
6.8576,55
7.0433,55
7.2291,54
7.4148,72
7.6006,62
7.7863,69
7.9721,82
8.1579,79
8.3436,72
8.5294,70
8.7151,70
8.9009,75
9.0866,74
9.2724,70
9.4581,85
9.6439,74
9.8297,88
10.0154,95
10.2012,90
10.3869,96
10.5727,73
10.7584,96
10.9442,84
11.1299,82
11.3157,67
11.5015,94
11.6872,89
11.8730,73
12.0587,81
12.2445,95
12.4302,78
12.6160,71
12.8018,77
12.9875,68
13.1733,81
13.3590,76
13.5448,79
13.7305,79
13.9163,80
14.1020,52
14.2878,56
14.4736,63
14.6593,60
14.8451,61
15.0308,54
15.2166,55
15.4023,70
15.5881,59
15.7738,57
15.9596,62
16.1454,64
16.3311,69
16.5169,63
16.7026,64
16.8884,47
17.0741,66
17.2599,60
17.4457,48
17.6314,67
17.8172,61
18.0029,58
18.1887,70
18.3744,65
18.5602,61
18.7459,54
18.9317,62
19.1175,68
19.3032,70
19.4890,66
19.6747,69
19.8605,64
20.0462,70
20.2320,64
20.4177,72
20.6035,75
20.7893,71
20.9750,65
21.1608,103
21.3465,154
21.5323,77
21.7180,71
21.9038,71
22.0896,91
22.2753,70
22.4611,59
22.6468,76
22.8326,56
23.0183,86
23.2041,89
23.3898,73
23.5756,67
23.7614,66
23.9471,62
24.1329,83
24.3186,81
24.5044,78
24.6901,67
24.8759,77
25.0616,78
25.2474,59
25.4332,72
25.6189,76
25.8047,72
25.9904,69
26.1762,58
26.3619,59
26.5477,68
26.7335,79
26.9192,80
27.1050,72
27.2907,73
27.4765,70
27.6622,74
27.8480,76
28.0337,48
28.2195,58
28.4053,73
28.5910,49
28.7768,62
28.9625,56
29.1483,52
29.3340,63
29.5198,64
29.7055,59
29.8913,47
30.0771,69
30.2628,58
30.4486,105
30.6343,61
30.8201,52
31.0058,47
31.1916,64
31.3774,40
31.5631,52
31.7489,40
31.9346,45
32.1204,49
32.3061,45
32.4919,47
32.6776,45
32.8634,43
33.0492,39
33.2349,46
33.4207,48
33.6064,47
33.7922,39
33.9779,36
34.1637,40
34.3494,51
34.5352,37
34.7210,50
34.9067,44
35.0925,41
35.2782,43
35.4640,39
35.6497,37
35.8355,31
36.0213,44
36.2070,35
36.3928,25
36.5785,44
36.7643,39
36.9500,36
37.1358,26
37.3215,31
37.5073,45
37.6931,25
37.8788,33
38.0646,34
38.2503,29
38.4361,40
38.6218,25
38.8076,27
38.9933,29
39.1791,24
39.3649,31
39.5506,31
39.7364,28
39.9221,26
40.1079,35
40.2936,33
40.4794,36
40.6652,34
40.8509,22
41.0367,23
41.2224,29
41.4082,21
41.5939,35
41.7797,27
41.9654,26
42.1512,21
42.3370,22
42.5227,26
42.7085,35
42.8942,30
43.0800,31
43.2657,34
43.4515,41
43.6372,46
43.8230,27
44.0088,26
44.1945,34
44.3803,26
44.5660,25
44.7518,46
44.9375,25
45.1233,25
45.3091,20
45.4948,22
45.6806,28
45.8663,16
46.0521,25
46.2378,18
46.4236,24
46.6093,26
46.7951,24
46.9809,20
47.1666,18
47.3524,19
47.5381,23
47.7239,34
47.9096,23
48.0954,31
48.2811,22
48.4669,17
48.6527,20
48.8384,24
49.0242,27
49.2099,32
49.3957,33
49.5814,22
49.7672,23
49.9530,18
50.1387,21
50.3245,26
50.5102,25
50.6960,20
50.8817,23
51.0675,18
51.2532,26
51.4390,28
51.6248,20
51.8105,29
51.9963,27
52.1820,24
52.3678,24
52.5535,30
52.7393,15
52.9250,19
53.1108,26
53.2966,24
53.4823,15
53.6681,18
53.8538,17
54.0396,17
54.2253,25
54.4111,28
54.5969,20
54.7826,17
54.9684,23
55.1541,18
55.3399,22
55.5256,18
55.7114,25
55.8971,22
56.0829,19
56.2687,13
56.4544,15
56.6402,25
56.8259,15
57.0117,13
57.1974,18
57.3832,22
57.5689,22
57.7547,22
57.9405,15
58.1262,22
58.3120,15
58.4977,15
58.6835,19
58.8692,18
59.0550,25
59.2408,16
59.4265,20
59.6123,28
59.7980,21
59.9838,22
60.0024,31

File: ML_20220720_26_SJD_4_LaB6-1min.uxd
; (content of file Y:\Sam\Apurva-07-20-2022\puck2\ML_20220720_26_SJD_0_LaB6-1min.raw)
_FILEVERSION = 3
_SAMPLE = ML_20220720_26_SJD_0_LaB6-1min
_+SAMPLE =
_SITE = USA
_USER = Administrator
_GONIOMETER_CODE = 20
; Goniometer : D8 theta/2theta, stage : Unknown
_ATTACHMENTS_CODE = 0
_GONIOMETER_RADIUS = 200.5
_FIXED_DIVSLIT = 0.6
_FIXED_SAMPLESLIT = 0
_SOLLER_SLITS = 2
_FIXED_DETSLIT = 9.55
_MONOCHROMATOR = 0
; Incident beam monochromator : None
_SOLLER_SLITS_2 = N
_THIN_FILM = N
_BETA_FILTER = Y
_FIXED_ANTISLIT = 5.89
_ANALYZER_CODE = 0
; Received beam analyzer : None
_DATEMEASURED = "25-Jul-2022 18:34:54"
_WL_UNIT = A
_WL1 = 1.5406
_WL2 = 1.54439
_WL3 = 1.39222
_WLRATIO = 0.5
_ANODE = Cu
_V4_INF_CREATOR = XRDWizard
_V4_INF_CREATOR_VERSION = V2.9.0.22
_V4_INF_WIZARD_VERSION = V2.9.0.22
_V4_INF_WIZARD_ADDINS = V2.9.0.22
_V4_INF_WIZARD_DOCTYPE = XRD
_V4_INF_OSUSER = McQueenLab
_V4_INF_USER = Administrator
_V4_INF_SITE = USA
_V4_INF_SAMPLEID = ML_20220720_26_SJD_0_LaB6-1min

; Data for range 1
_DRIVE = COUPLED
_STEPTIME = 4.23
_STEPSIZE = 0.0185756
_STEPMODE = C
_START = 5
_THETA = 2.5
_2THETA = 5
_KHI = 0
_PHI = 0
_X = 0
_Y = 0
_Z = 0
_DETECTOR = 5
; Detector type : Unknown
_DETECTORSLIT = unkn
_AUX1 = 0
_AUX2 = 0
_AUX3 = 0
_TIMESTARTED = 15
_TEMP_RATE = -1
_TEMP_DELAY = -1
_KV = 40
_MA = 40
_RANGE_WL = 1.5406
_3DPLANE = 0
_V4_ADDITIONALDETECTOR = 257
_V4_PSD2THETA = 3.431
_V4_PSDCHANNEL1 = 0
_V4_PSDAPERTURE = 12.68
_V4_PSDTYPE = 5
_V4_PSDFIXED = 0
_V4_COUNTERS_MASK = 4096
_V4_DRIVES_MASK = 0
_V4_ENCODERS_MASK = 0
_2THETACOUNTS = 1
; 2THETA  PSD
   5.0000         95
   5.1858         88
   5.3715         77
   5.5573         76
   5.7430         81
   5.9288         92
   6.1145         59
   6.3003         72
   6.4860         79
   6.6718         65
   6.8576         74
   7.0433         52
   7.2291         68
   7.4148         56
   7.6006         67
   7.7863         65
   7.9721         69
   8.1579         77
   8.3436         75
   8.5294         90
   8.7151         79
   8.9009         84
   9.0866         81
   9.2724         76
   9.4581        106
   9.6439         76
   9.8297         86
  10.0154         90
  10.2012         89
  10.3869         90
  10.5727         78
  10.7584         78
  10.9442        102
  11.1299         73
  11.3157         88
  11.5015         97
  11.6872         87
  11.8730         82
  12.0587        100
  12.2445         97
  12.4302         73
  12.6160         54
  12.8018         76
  12.9875         78
  13.1733         81
  13.3590         68
  13.5448         62
  13.7305         61
  13.9163         53
  14.1020         61
  14.2878         76
  14.4736         65
  14.6593         63
  14.8451         54
  15.0308         53
  15.2166         67
  15.4023         57
  15.5881         76
  15.7738         66
  15.9596         69
  16.1454         70
  16.3311         59
  16.5169         65
  16.7026         63
  16.8884         61
  17.0741         55
  17.2599         59
  17.4457         52
  17.6314         52
  17.8172         71
  18.0029         56
  18.1887         46
  18.3744         55
  18.5602         54
  18.7459         81
  18.9317         71
  19.1175         53
  19.3032         63
  19.4890         59
  19.6747         63
  19.8605         46
  20.0462         66
  20.2320         66
  20.4177         83
  20.6035         74
  20.7893         72
  20.9750         65
  21.1608         58
  21.3465        188
  21.5323         75
  21.7180         66
  21.9038         62
  22.0896         76
  22.2753         72
  22.4611         67
  22.6468         67
  22.8326         60
  23.0183         74
  23.2041         72
  23.3898         83
  23.5756         77
  23.7614         70
  23.9471         78
  24.1329         73
  24.3186         77
  24.5044         74
  24.6901         75
  24.8759         67
  25.0616         66
  25.2474         80
  25.4332         68
  25.6189         78
  25.8047         71
  25.9904         69
  26.1762         73
  26.3619         67
  26.5477         74
  26.7335         72
  26.9192         75
  27.1050         70
  27.2907         69
  27.4765         65
  27.6622         69
  27.8480         72
  28.0337         57
  28.2195         58
  28.4053         65
  28.5910         54
  28.7768         44
  28.9625         65
  29.1483         62
  29.3340         64
  29.5198         63
  29.7055         69
  29.8913         57
  30.0771         62
  30.2628         65
  30.4486         95
  30.6343         55
  30.8201         44
  31.0058         44
  31.1916         46
  31.3774         59
  31.5631         42
  31.7489         48
  31.9346         48
  32.1204         49
  32.3061         41
  32.4919         62
  32.6776         57
  32.8634         51
  33.0492         41
  33.2349         64
  33.4207         48
  33.6064         49
  33.7922         38
  33.9779         53
  34.1637         34
  34.3494         40
  34.5352         50
  34.7210         48
  34.9067         49
  35.0925         34
  35.2782         37
  35.4640         38
  35.6497         36
  35.8355         28
  36.0213         30
  36.2070         27
  36.3928         39
  36.5785         34
  36.7643         35
  36.9500         30
  37.1358         26
  37.3215         33
  37.5073         47
  37.6931         33
  37.8788         16
  38.0646         33
  38.2503         30
  38.4361         33
  38.6218         34
  38.8076         40
  38.9933         32
  39.1791         27
  39.3649         27
  39.5506         20
  39.7364         30
  39.9221         23
  40.1079         34
  40.2936         26
  40.4794         27
  40.6652         37
  40.8509         29
  41.0367         23
  41.2224         25
  41.4082         34
  41.5939         31
  41.7797         26
  41.9654         23
  42.1512         25
  42.3370         31
  42.5227         32
  42.7085         23
  42.8942         19
  43.0800         22
  43.2657         36
  43.4515         34
  43.6372         29
  43.8230         27
  44.0088         29
  44.1945         22
  44.3803         28
  44.5660         30
  44.7518         28
  44.9375         30
  45.1233         26
  45.3091         25
  45.4948         32
  45.6806         28
  45.8663         21
  46.0521         21
  46.2378         22
  46.4236         30
  46.6093         25
  46.7951         17
  46.9809         25
  47.1666         16
  47.3524         17
  47.5381         20
  47.7239         25
  47.9096         19
  48.0954         24
  48.2811         15
  48.4669         25
  48.6527         16
  48.8384         22
  49.0242         31
  49.2099         24
  49.3957         24
  49.5814         21
  49.7672         31
  49.9530         17
  50.1387         20
  50.3245         28
  50.5102         27
  50.6960         25
  50.8817         21
  51.0675         19
  51.2532         19
  51.4390         23
  51.6248         25
  51.8105         19
  51.9963         26
  52.1820         20
  52.3678         20
  52.5535         16
  52.7393         17
  52.9250         23
  53.1108         28
  53.2966         25
  53.4823         19
  53.6681         19
  53.8538         25
  54.0396         30
  54.2253         16
  54.4111         22
  54.5969         25
  54.7826         19
  54.9684         22
  55.1541         21
  55.3399         15
  55.5256         21
  55.7114         26
  55.8971         20
  56.0829         20
  56.2687         20
  56.4544         24
  56.6402         16
  56.8259         19
  57.0117         17
  57.1974         20
  57.3832         20
  57.5689         18
  57.7547         15
  57.9405         20
  58.1262         26
  58.3120         16
  58.4977         19
  58.6835         25
  58.8692         18
  59.0550         25
  59.2408         22
  59.4265         14
  59.6123         26
  59.7980         18
  59.9838         21
  60.0024         21

File: ML_20220720_27_SJD_4_LaB6-1min.uxd
; (content of file Y:\Sam\Apurva-07-20-2022\puck2\ML_20220720_27_SJD_0_LaB6-1min.raw)
_FILEVERSION = 3
_SAMPLE = ML_20220720_27_SJD_0_LaB6-1min
_+SAMPLE =
_SITE = USA
_USER = Administrator
_GONIOMETER_CODE = 20
; Goniometer : D8 theta/2theta, stage : Unknown
_ATTACHMENTS_CODE = 0
_GONIOMETER_RADIUS = 200.5
_FIXED_DIVSLIT = 0.6
_FIXED_SAMPLESLIT = 0
_SOLLER_SLITS = 2
_FIXED_DETSLIT = 9.55
_MONOCHROMATOR = 0
; Incident beam monochromator : None
_SOLLER_SLITS_2 = N
_THIN_FILM = N
_BETA_FILTER = Y
_FIXED_ANTISLIT = 5.89
_ANALYZER_CODE = 0
; Received beam analyzer : None
_DATEMEASURED = "25-Jul-2022 18:36:47"
_WL_UNIT = A
_WL1 = 1.5406
_WL2 = 1.54439
_WL3 = 1.39222
_WLRATIO = 0.5
_ANODE = Cu
_V4_INF_CREATOR = XRDWizard
_V4_INF_CREATOR_VERSION = V2.9.0.22
_V4_INF_WIZARD_VERSION = V2.9.0.22
_V4_INF_WIZARD_ADDINS = V2.9.0.22
_V4_INF_WIZARD_DOCTYPE = XRD
_V4_INF_OSUSER = McQueenLab
_V4_INF_USER = Administrator
_V4_INF_SITE = USA
_V4_INF_SAMPLEID = ML_20220720_27_SJD_0_LaB6-1min

; Data for range 1
_DRIVE = COUPLED
_STEPTIME = 4.23
_STEPSIZE = 0.0185756
_STEPMODE = C
_START = 5
_THETA = 2.5
_2THETA = 5
_KHI = 0
_PHI = 0
_X = 0
_Y = 0
_Z = 0
_DETECTOR = 5
; Detector type : Unknown
_DETECTORSLIT = unkn
_AUX1 = 0
_AUX2 = 0
_AUX3 = 0
_TIMESTARTED = 16
_TEMP_RATE = -1
_TEMP_DELAY = -1
_KV = 40
_MA = 40
_RANGE_WL = 1.5406
_3DPLANE = 0
_V4_ADDITIONALDETECTOR = 257
_V4_PSD2THETA = 3.4374
_V4_PSDCHANNEL1 = 0
_V4_PSDAPERTURE = 12.68
_V4_PSDTYPE = 5
_V4_PSDFIXED = 0
_V4_COUNTERS_MASK = 4096
_V4_DRIVES_MASK = 0
_V4_ENCODERS_MASK = 0
_2THETACOUNTS = 1
; 2THETA  PSD
   5.0000         75
   5.1858         87
   5.3715         76
   5.5573         87
   5.7430         77
   5.9288         80
   6.1145         65
   6.3003         74
   6.4860         63
   6.6718         53
   6.8576         64
   7.0433         60
   7.2291         56
   7.4148         55
   7.6006         60
   7.7863         67
   7.9721         82
   8.1579         67
   8.3436         66
   8.5294         63
   8.7151         68
   8.9009         80
   9.0866         86
   9.2724         91
   9.4581        109
   9.6439         77
   9.8297         95
  10.0154         97
  10.2012         96
  10.3869         74
  10.5727         81
  10.7584         95
  10.9442         75
  11.1299         79
  11.3157         84
  11.5015         79
  11.6872         98
  11.8730         77
  12.0587         92
  12.2445         75
  12.4302         76
  12.6160         74
  12.8018         79
  12.9875         73
  13.1733         62
  13.3590         85
  13.5448         82
  13.7305         70
  13.9163         65
  14.1020         61
  14.2878         76
  14.4736         65
  14.6593         50
  14.8451         69
  15.0308         56
  15.2166         70
  15.4023         62
  15.5881         55
  15.7738         64
  15.9596         73
  16.1454         67
  16.3311         62
  16.5169         60
  16.7026         49
  16.8884         52
  17.0741         73
  17.2599         52
  17.4457         54
  17.6314         70
  17.8172         53
  18.0029         67
  18.1887         72
  18.3744         57
  18.5602         57
  18.7459         78
  18.9317         53
  19.1175         75
  19.3032         63
  19.4890         50
  19.6747         65
  19.8605         45
  20.0462         61
  20.2320         72
  20.4177         56
  20.6035         71
  20.7893         62
  20.9750         74
  21.1608         71
  21.3465        183
  21.5323         78
  21.7180         89
  21.9038         56
  22.0896         81
  22.2753         75
  22.4611         93
  22.6468         58
  22.8326         78
  23.0183         81
  23.2041         73
  23.3898         66
  23.5756         62
  23.7614         66
  23.9471         70
  24.1329         62
  24.3186         76
  24.5044         87
  24.6901         77
  24.8759         69
  25.0616         79
  25.2474         70
  25.4332         71
  25.6189         80
  25.8047         76
  25.9904         69
  26.1762         74
  26.3619         71
  26.5477         79
  26.7335         75
  26.9192         64
  27.1050         60
  27.2907         89
  27.4765         76
  27.6622         77
  27.8480         76
  28.0337         62
  28.2195         72
  28.4053         58
  28.5910         69
  28.7768         65
  28.9625         53
  29.1483         45
  29.3340         36
  29.5198         63
  29.7055         55
  29.8913         51
  30.0771         54
  30.2628         74
  30.4486         77
  30.6343         62
  30.8201         63
  31.0058         51
  31.1916         47
  31.3774         55
  31.5631         52
  31.7489         51
  31.9346         45
  32.1204         60
  32.3061         51
  32.4919         47
  32.6776         52
  32.8634         39
  33.0492         39
  33.2349         57
  33.4207         44
  33.6064         56
  33.7922         38
  33.9779         44
  34.1637         34
  34.3494         36
  34.5352         41
  34.7210         40
  34.9067         48
  35.0925         41
  35.2782         32
  35.4640         28
  35.6497         42
  35.8355         40
  36.0213         25
  36.2070         36
  36.3928         33
  36.5785         25
  36.7643         43
  36.9500         28
  37.1358         35
  37.3215         33
  37.5073         34
  37.6931         32
  37.8788         33
  38.0646         30
  38.2503         24
  38.4361         31
  38.6218         27
  38.8076         24
  38.9933         28
  39.1791         38
  39.3649         23
  39.5506         27
  39.7364         22
  39.9221         25
  40.1079         27
  40.2936         34
  40.4794         22
  40.6652         34
  40.8509         20
  41.0367         29
  41.2224         35
  41.4082         32
  41.5939         25
  41.7797         28
  41.9654         32
  42.1512         24
  42.3370         23
  42.5227         24
  42.7085         30
  42.8942         31
  43.0800         26
  43.2657         36
  43.4515         37
  43.6372         34
  43.8230         19
  44.0088         32
  44.1945         32
  44.3803         26
  44.5660         27
  44.7518         26
  44.9375         35
  45.1233         19
  45.3091         28
  45.4948         17
  45.6806         36
  45.8663         21
  46.0521         25
  46.2378         21
  46.4236         21
  46.6093         27
  46.7951         16
  46.9809         27
  47.1666         33
  47.3524         29
  47.5381         25
  47.7239         21
  47.9096         25
  48.0954         26
  48.2811         26
  48.4669         27
  48.6527         25
  48.8384         15
  49.0242         37
  49.2099         23
  49.3957         10
  49.5814         23
  49.7672         16
  49.9530         17
  50.1387         26
  50.3245         14
  50.5102         15
  50.6960         20
  50.8817         28
  51.0675         24
  51.2532         33
  51.4390         30
  51.6248         16
  51.8105         18
  51.9963         27
  52.1820         18
  52.3678         20
  52.5535         25
  52.7393         18
  52.9250         21
  53.1108         24
  53.2966         19
  53.4823         16
  53.6681         19
  53.8538         23
  54.0396         20
  54.2253         20
  54.4111         24
  54.5969         25
  54.7826         28
  54.9684         22
  55.1541         24
  55.3399         19
  55.5256         18
  55.7114         19
  55.8971         27
  56.0829         27
  56.2687         17
  56.4544         25
  56.6402         27
  56.8259         12
  57.0117         36
  57.1974         23
  57.3832         17
  57.5689         14
  57.7547         26
  57.9405         19
  58.1262         20
  58.3120         17
  58.4977         19
  58.6835         25
  58.8692         20
  59.0550         20
  59.2408         19
  59.4265         17
  59.6123         28
  59.7980         25
  59.9838         23
  60.0024         29

File: ML_20220720_28_SJD_4_LaB6-1min.csv
;,2THETA,
5.0000,112
5.1858,77
5.3715,107
5.5573,81
5.7430,74
5.9288,76
6.1145,76
6.3003,71
6.4860,54
6.6718,60
6.8576,57
7.0433,61
7.2291,57
7.4148,52
7.6006,66
7.7863,71
7.9721,63
8.1579,60
8.3436,83
8.5294,68
8.7151,78
8.9009,79
9.0866,71
9.2724,97
9.4581,75
9.6439,68
9.8297,77
10.0154,91
10.2012,90
10.3869,77
10.5727,90
10.7584,87
10.9442,84
11.1299,81
11.3157,78
11.5015,95
11.6872,77
11.8730,104
12.0587,79
12.2445,79
12.4302,74
12.6160,95
12.8018,87
12.9875,75
13.1733,86
13.3590,75
13.5448,68
13.7305,71
13.9163,81
14.1020,67
14.2878,59
14.4736,66
14.6593,66
14.8451,76
15.0308,67
15.2166,58
15.4023,66
15.5881,56
15.7738,44
15.9596,62
16.1454,61
16.3311,68
16.5169,58
16.7026,52
16.8884,51
17.0741,63
17.2599,76
17.4457,69
17.6314,67
17.8172,57
18.0029,68
18.1887,55
18.3744,69
18.5602,59
18.7459,58
18.9317,57
19.1175,67
19.3032,71
19.4890,74
19.6747,64
19.8605,80
20.0462,71
20.2320,63
20.4177,72
20.6035,69
20.7893,69
20.9750,73
21.1608,92
21.3465,155
21.5323,64
21.7180,84
21.9038,61
22.0896,84
22.2753,82
22.4611,69
22.6468,70
22.8326,69
23.0183,71
23.2041,75
23.3898,80
23.5756,78
23.7614,66
23.9471,79
24.1329,73
24.3186,87
24.5044,80
24.6901,78
24.8759,65
25.0616,70
25.2474,76
25.4332,81
25.6189,74
25.8047,80
25.9904,53
26.1762,73
26.3619,63
26.5477,74
26.7335,63
26.9192,70
27.1050,71
27.2907,93
27.4765,59
27.6622,62
27.8480,69
28.0337,57
28.2195,68
28.4053,61
28.5910,72
28.7768,68
28.9625,58
29.1483,50
29.3340,59
29.5198,62
29.7055,58
29.8913,61
30.0771,45
30.2628,60
30.4486,89
30.6343,58
30.8201,45
31.0058,50
31.1916,64
31.3774,47
31.5631,42
31.7489,34
31.9346,41
32.1204,39
32.3061,48
32.4919,45
32.6776,48
32.8634,55
33.0492,33
33.2349,36
33.4207,46
33.6064,42
33.7922,43
33.9779,49
34.1637,53
34.3494,44
34.5352,47
34.7210,57
34.9067,53
35.0925,39
35.2782,40
35.4640,53
35.6497,31
35.8355,31
36.0213,33
36.2070,38
36.3928,32
36.5785,36
36.7643,26
36.9500,34
37.1358,47
37.3215,34
37.5073,40
37.6931,34
37.8788,28
38.0646,29
38.2503,29
38.4361,39
38.6218,34
38.8076,25
38.9933,37
39.1791,29
39.3649,34
39.5506,28
39.7364,23
39.9221,32
40.1079,37
40.2936,22
40.4794,27
40.6652,23
40.8509,32
41.0367,25
41.2224,27
41.4082,25
41.5939,32
41.7797,39
41.9654,27
42.1512,31
42.3370,27
42.5227,30
42.7085,30
42.8942,30
43.0800,32
43.2657,33
43.4515,39
43.6372,18
43.8230,33
44.0088,22
44.1945,29
44.3803,12
44.5660,37
44.7518,31
44.9375,23
45.1233,22
45.3091,24
45.4948,27
45.6806,28
45.8663,22
46.0521,24
46.2378,27
46.4236,18
46.6093,21
46.7951,21
46.9809,22
47.1666,34
47.3524,27
47.5381,24
47.7239,14
47.9096,16
48.0954,24
48.2811,18
48.4669,21
48.6527,26
48.8384,24
49.0242,27
49.2099,27
49.3957,20
49.5814,27
49.7672,23
49.9530,26
50.1387,26
50.3245,24
50.5102,24
50.6960,21
50.8817,15
51.0675,23
51.2532,18
51.4390,27
51.6248,23
51.8105,22
51.9963,18
52.1820,14
52.3678,16
52.5535,26
52.7393,25
52.9250,16
53.1108,17
53.2966,23
53.4823,21
53.6681,19
53.8538,25
54.0396,33
54.2253,19
54.4111,16
54.5969,16
54.7826,29
54.9684,25
55.1541,23
55.3399,29
55.5256,19
55.7114,26
55.8971,21
56.0829,23
56.2687,19
56.4544,24
56.6402,18
56.8259,19
57.0117,24
57.1974,21
57.3832,17
57.5689,22
57.7547,23
57.9405,21
58.1262,13
58.3120,25
58.4977,32
58.6835,24
58.8692,23
59.0550,19
59.2408,24
59.4265,18
59.6123,22
59.7980,20
59.9838,21
60.0024,27