Folder: xrd_clustering/notebooks/data/xrd_data (part 35)

File: ML_20220720_29_SJD_4_LaB6-1min.uxd
; (content of file Y:\Sam\Apurva-07-20-2022\puck2\ML_20220720_29_SJD_0_LaB6-1min.raw)
_FILEVERSION = 3
_SAMPLE = ML_20220720_29_SJD_0_LaB6-1min
_+SAMPLE =
_SITE = USA
_USER = Administrator
_GONIOMETER_CODE = 20
; Goniometer : D8 theta/2theta, stage : Unknown
_ATTACHMENTS_CODE = 0
_GONIOMETER_RADIUS = 200.5
_FIXED_DIVSLIT = 0.6
_FIXED_SAMPLESLIT = 0
_SOLLER_SLITS = 2
_FIXED_DETSLIT = 9.55
_MONOCHROMATOR = 0
; Incident beam monochromator : None
_SOLLER_SLITS_2 = N
_THIN_FILM = N
_BETA_FILTER = Y
_FIXED_ANTISLIT = 5.89
_ANALYZER_CODE = 0
; Received beam analyzer : None
_DATEMEASURED = "25-Jul-2022 18:40:31"
_WL_UNIT = A
_WL1 = 1.5406
_WL2 = 1.54439
_WL3 = 1.39222
_WLRATIO = 0.5
_ANODE = Cu
_V4_INF_CREATOR = XRDWizard
_V4_INF_CREATOR_VERSION = V2.9.0.22
_V4_INF_WIZARD_VERSION = V2.9.0.22
_V4_INF_WIZARD_ADDINS = V2.9.0.22
_V4_INF_WIZARD_DOCTYPE = XRD
_V4_INF_OSUSER = McQueenLab
_V4_INF_USER = Administrator
_V4_INF_SITE = USA
_V4_INF_SAMPLEID = ML_20220720_29_SJD_0_LaB6-1min

; Data for range 1
_DRIVE = COUPLED
_STEPTIME = 4.23
_STEPSIZE = 0.0185756
_STEPMODE = C
_START = 5
_THETA = 2.5
_2THETA = 5
_KHI = 0
_PHI = 0
_X = 0
_Y = 0
_Z = 0
_DETECTOR = 5
; Detector type : Unknown
_DETECTORSLIT = unkn
_AUX1 = 0
_AUX2 = 0
_AUX3 = 0
_TIMESTARTED = 15
_TEMP_RATE = -1
_TEMP_DELAY = -1
_KV = 40
_MA = 40
_RANGE_WL = 1.5406
_3DPLANE = 0
_V4_ADDITIONALDETECTOR = 257
_V4_PSD2THETA = 3.4372
_V4_PSDCHANNEL1 = 0
_V4_PSDAPERTURE = 12.68
_V4_PSDTYPE = 5
_V4_PSDFIXED = 0
_V4_COUNTERS_MASK = 4096
_V4_DRIVES_MASK = 0
_V4_ENCODERS_MASK = 0
_2THETACOUNTS = 1
; 2THETA  PSD
   5.0000        104
   5.1858         79
   5.3715         94
   5.5573         88
   5.7430         71
   5.9288         65
   6.1145         67
   6.3003         80
   6.4860         67
   6.6718         57
   6.8576         57
   7.0433         67
   7.2291         55
   7.4148         52
   7.6006         63
   7.7863         69
   7.9721         67
   8.1579         78
   8.3436         58
   8.5294         86
   8.7151         70
   8.9009         78
   9.0866         81
   9.2724         90
   9.4581         71
   9.6439         85
   9.8297        101
  10.0154         77
  10.2012         91
  10.3869         85
  10.5727         75
  10.7584         94
  10.9442         77
  11.1299         86
  11.3157         87
  11.5015         74
  11.6872         74
  11.8730         83
  12.0587         81
  12.2445         76
  12.4302         77
  12.6160         70
  12.8018         88
  12.9875         93
  13.1733         58
  13.3590         87
  13.5448         74
  13.7305         72
  13.9163         68
  14.1020         71
  14.2878         65
  14.4736         59
  14.6593         60
  14.8451         63
  15.0308         57
  15.2166         61
  15.4023         76
  15.5881         66
  15.7738         47
  15.9596         57
  16.1454         48
  16.3311         61
  16.5169         54
  16.7026         53
  16.8884         65
  17.0741         51
  17.2599         74
  17.4457         65
  17.6314         46
  17.8172         62
  18.0029         56
  18.1887         63
  18.3744         78
  18.5602         63
  18.7459         51
  18.9317         67
  19.1175         48
  19.3032         64
  19.4890         62
  19.6747         78
  19.8605         61
  20.0462         76
  20.2320         73
  20.4177         75
  20.6035         59
  20.7893         62
  20.9750         64
  21.1608         79
  21.3465        194
  21.5323         88
  21.7180         67
  21.9038         64
  22.0896         84
  22.2753         69
  22.4611         61
  22.6468         88
  22.8326         79
  23.0183         61
  23.2041         64
  23.3898         71
  23.5756         86
  23.7614         69
  23.9471         79
  24.1329         85
  24.3186         68
  24.5044         73
  24.6901         77
  24.8759         71
  25.0616         89
  25.2474         76
  25.4332         74
  25.6189         76
  25.8047         75
  25.9904         70
  26.1762         70
  26.3619         57
  26.5477         57
  26.7335         63
  26.9192         59
  27.1050         80
  27.2907         78
  27.4765         62
  27.6622         69
  27.8480         56
  28.0337         48
  28.2195         61
  28.4053         51
  28.5910         57
  28.7768         56
  28.9625         59
  29.1483         69
  29.3340         56
  29.5198         44
  29.7055         46
  29.8913         48
  30.0771         48
  30.2628         62
  30.4486         93
  30.6343         52
  30.8201         60
  31.0058         61
  31.1916         40
  31.3774         60
  31.5631         59
  31.7489         49
  31.9346         72
  32.1204         44
  32.3061         40
  32.4919         57
  32.6776         49
  32.8634         41
  33.0492         46
  33.2349         46
  33.4207         46
  33.6064         42
  33.7922         46
  33.9779         39
  34.1637         40
  34.3494         44
  34.5352         46
  34.7210         59
  34.9067         38
  35.0925         29
  35.2782         44
  35.4640         36
  35.6497         37
  35.8355         28
  36.0213         32
  36.2070         40
  36.3928         34
  36.5785         29
  36.7643         37
  36.9500         30
  37.1358         38
  37.3215         42
  37.5073         39
  37.6931         30
  37.8788         24
  38.0646         33
  38.2503         41
  38.4361         34
  38.6218         33
  38.8076         28
  38.9933         38
  39.1791         22
  39.3649         25
  39.5506         28
  39.7364         23
  39.9221         38
  40.1079         30
  40.2936         22
  40.4794         32
  40.6652         38
  40.8509         25
  41.0367         25
  41.2224         26
  41.4082         27
  41.5939         22
  41.7797         22
  41.9654         24
  42.1512         36
  42.3370         33
  42.5227         33
  42.7085         27
  42.8942         31
  43.0800         30
  43.2657         35
  43.4515         40
  43.6372         34
  43.8230         23
  44.0088         29
  44.1945         31
  44.3803         20
  44.5660         39
  44.7518         30
  44.9375         30
  45.1233         21
  45.3091         28
  45.4948         20
  45.6806         23
  45.8663         29
  46.0521         27
  46.2378         11
  46.4236         37
  46.6093         17
  46.7951         22
  46.9809         28
  47.1666         25
  47.3524         29
  47.5381         26
  47.7239         23
  47.9096         19
  48.0954         21
  48.2811         27
  48.4669         29
  48.6527         20
  48.8384         19
  49.0242         33
  49.2099         29
  49.3957         19
  49.5814         22
  49.7672         22
  49.9530         20
  50.1387         22
  50.3245         20
  50.5102         23
  50.6960         23
  50.8817         25
  51.0675         31
  51.2532         21
  51.4390         23
  51.6248         24
  51.8105         22
  51.9963         24
  52.1820         21
  52.3678         25
  52.5535         20
  52.7393         25
  52.9250         25
  53.1108         16
  53.2966         25
  53.4823         16
  53.6681         15
  53.8538         20
  54.0396         22
  54.2253         17
  54.4111         29
  54.5969         20
  54.7826         19
  54.9684         26
  55.1541         21
  55.3399         23
  55.5256         14
  55.7114         19
  55.8971         22
  56.0829         19
  56.2687         27
  56.4544         19
  56.6402         30
  56.8259         17
  57.0117         26
  57.1974         25
  57.3832         22
  57.5689         24
  57.7547         21
  57.9405         17
  58.1262         19
  58.3120         18
  58.4977         16
  58.6835         20
  58.8692         20
  59.0550         20
  59.2408         23
  59.4265         17
  59.6123         23
  59.7980         15
  59.9838         22
  60.0024         19

File: ML_20220720_30_SJD_4_LaB6-1min.csv
;,2THETA,
5.0000,98
5.1858,105
5.3715,98
5.5573,80
5.7430,98
5.9288,64
6.1145,67
6.3003,51
6.4860,68
6.6718,56
6.8576,61
7.0433,70
7.2291,55
7.4148,56
7.6006,73
7.7863,75
7.9721,76
8.1579,70
8.3436,84
8.5294,53
8.7151,64
8.9009,74
9.0866,83
9.2724,88
9.4581,82
9.6439,74
9.8297,88
10.0154,95
10.2012,73
10.3869,94
10.5727,91
10.7584,93
10.9442,83
11.1299,94
11.3157,85
11.5015,79
11.6872,88
11.8730,78
12.0587,88
12.2445,72
12.4302,80
12.6160,71
12.8018,68
12.9875,76
13.1733,74
13.3590,70
13.5448,68
13.7305,76
13.9163,62
14.1020,76
14.2878,79
14.4736,68
14.6593,63
14.8451,57
15.0308,65
15.2166,48
15.4023,72
15.5881,73
15.7738,48
15.9596,57
16.1454,69
16.3311,64
16.5169,50
16.7026,59
16.8884,69
17.0741,60
17.2599,62
17.4457,70
17.6314,61
17.8172,62
18.0029,45
18.1887,60
18.3744,60
18.5602,52
18.7459,74
18.9317,46
19.1175,54
19.3032,61
19.4890,59
19.6747,63
19.8605,68
20.0462,63
20.2320,66
20.4177,68
20.6035,76
20.7893,74
20.9750,76
21.1608,73
21.3465,166
21.5323,72
21.7180,83
21.9038,80
22.0896,59
22.2753,87
22.4611,70
22.6468,76
22.8326,74
23.0183,59
23.2041,73
23.3898,98
23.5756,80
23.7614,84
23.9471,76
24.1329,80
24.3186,76
24.5044,71
24.6901,83
24.8759,86
25.0616,61
25.2474,57
25.4332,82
25.6189,76
25.8047,76
25.9904,97
26.1762,79
26.3619,58
26.5477,87
26.7335,70
26.9192,72
27.1050,74
27.2907,75
27.4765,66
27.6622,56
27.8480,66
28.0337,82
28.2195,53
28.4053,55
28.5910,62
28.7768,72
28.9625,61
29.1483,49
29.3340,59
29.5198,52
29.7055,56
29.8913,45
30.0771,57
30.2628,68
30.4486,86
30.6343,64
30.8201,52
31.0058,60
31.1916,61
31.3774,51
31.5631,51
31.7489,42
31.9346,43
32.1204,53
32.3061,56
32.4919,61
32.6776,41
32.8634,39
33.0492,55
33.2349,43
33.4207,43
33.6064,51
33.7922,37
33.9779,43
34.1637,34
34.3494,42
34.5352,41
34.7210,55
34.9067,45
35.0925,43
35.2782,29
35.4640,36
35.6497,35
35.8355,29
36.0213,45
36.2070,35
36.3928,39
36.5785,34
36.7643,26
36.9500,39
37.1358,30
37.3215,42
37.5073,34
37.6931,26
37.8788,34
38.0646,28
38.2503,32
38.4361,22
38.6218,28
38.8076,43
38.9933,31
39.1791,21
39.3649,27
39.5506,26
39.7364,26
39.9221,33
40.1079,22
40.2936,32
40.4794,25
40.6652,29
40.8509,33
41.0367,25
41.2224,26
41.4082,14
41.5939,29
41.7797,22
41.9654,24
42.1512,31
42.3370,29
42.5227,27
42.7085,26
42.8942,25
43.0800,29
43.2657,25
43.4515,36
43.6372,43
43.8230,33
44.0088,25
44.1945,32
44.3803,28
44.5660,34
44.7518,31
44.9375,31
45.1233,32
45.3091,23
45.4948,25
45.6806,27
45.8663,27
46.0521,27
46.2378,24
46.4236,18
46.6093,23
46.7951,30
46.9809,26
47.1666,26
47.3524,24
47.5381,22
47.7239,30
47.9096,15
48.0954,21
48.2811,24
48.4669,18
48.6527,29
48.8384,28
49.0242,34
49.2099,22
49.3957,22
49.5814,26
49.7672,21
49.9530,18
50.1387,28
50.3245,23
50.5102,33
50.6960,36
50.8817,17
51.0675,17
51.2532,30
51.4390,27
51.6248,27
51.8105,21
51.9963,25
52.1820,13
52.3678,22
52.5535,9
52.7393,30
52.9250,19
53.1108,22
53.2966,26
53.4823,14
53.6681,28
53.8538,20
54.0396,19
54.2253,25
54.4111,21
54.5969,14
54.7826,17
54.9684,16
55.1541,21
55.3399,17
55.5256,19
55.7114,21
55.8971,24
56.0829,17
56.2687,17
56.4544,14
56.6402,15
56.8259,15
57.0117,22
57.1974,14
57.3832,25
57.5689,23
57.7547,21
57.9405,21
58.1262,21
58.3120,28
58.4977,18
58.6835,27
58.8692,19
59.0550,23
59.2408,26
59.4265,10
59.6123,21
59.7980,23
59.9838,17
60.0024,15

File: ML_20220720_31_SJD_4_LaB6-1min.uxd
; (content of file Y:\Sam\Apurva-07-20-2022\puck2\ML_20220720_31_SJD_0_LaB6-1min.raw)
_FILEVERSION = 3
_SAMPLE = ML_20220720_31_SJD_0_LaB6-1mi
_+SAMPLE =
_SITE = USA
_USER = Administrator
_GONIOMETER_CODE = 20
; Goniometer : D8 theta/2theta, stage : Unknown
_ATTACHMENTS_CODE = 0
_GONIOMETER_RADIUS = 200.5
_FIXED_DIVSLIT = 0.6
_FIXED_SAMPLESLIT = 0
_SOLLER_SLITS = 2
_FIXED_DETSLIT = 9.55
_MONOCHROMATOR = 0
; Incident beam monochromator : None
_SOLLER_SLITS_2 = N
_THIN_FILM = N
_BETA_FILTER = Y
_FIXED_ANTISLIT = 5.89
_ANALYZER_CODE = 0
; Received beam analyzer : None
_DATEMEASURED = "25-Jul-2022 18:44:16"
_WL_UNIT = A
_WL1 = 1.5406
_WL2 = 1.54439
_WL3 = 1.39222
_WLRATIO = 0.5
_ANODE = Cu
_V4_INF_CREATOR = XRDWizard
_V4_INF_CREATOR_VERSION = V2.9.0.22
_V4_INF_WIZARD_VERSION = V2.9.0.22
_V4_INF_WIZARD_ADDINS = V2.9.0.22
_V4_INF_WIZARD_DOCTYPE = XRD
_V4_INF_OSUSER = McQueenLab
_V4_INF_USER = Administrator
_V4_INF_SITE = USA
_V4_INF_SAMPLEID = ML_20220720_31_SJD_0_LaB6-1mi

; Data for range 1
_DRIVE = COUPLED
_STEPTIME = 4.23
_STEPSIZE = 0.0185756
_STEPMODE = C
_START = 5
_THETA = 2.5
_2THETA = 5
_KHI = 0
_PHI = 0
_X = 0
_Y = 0
_Z = 0
_DETECTOR = 5
; Detector type : Unknown
_DETECTORSLIT = unkn
_AUX1 = 0
_AUX2 = 0
_AUX3 = 0
_TIMESTARTED = 15
_TEMP_RATE = -1
_TEMP_DELAY = -1
_KV = 40
_MA = 40
_RANGE_WL = 1.5406
_3DPLANE = 0
_V4_ADDITIONALDETECTOR = 257
_V4_PSD2THETA = 3.3733
_V4_PSDCHANNEL1 = 0
_V4_PSDAPERTURE = 12.68
_V4_PSDTYPE = 5
_V4_PSDFIXED = 0
_V4_COUNTERS_MASK = 4096
_V4_DRIVES_MASK = 0
_V4_ENCODERS_MASK = 0
_2THETACOUNTS = 1
; 2THETA  PSD
   5.0000        112
   5.1858        106
   5.3715         81
   5.5573         98
   5.7430         61
   5.9288         65
   6.1145         65
   6.3003         56
   6.4860         75
   6.6718         60
   6.8576         70
   7.0433         54
   7.2291         62
   7.4148         50
   7.6006         51
   7.7863         57
   7.9721         64
   8.1579         91
   8.3436         63
   8.5294         91
   8.7151         87
   8.9009         75
   9.0866         77
   9.2724         94
   9.4581         74
   9.6439         94
   9.8297         78
  10.0154         86
  10.2012         73
  10.3869         86
  10.5727         86
  10.7584         77
  10.9442         96
  11.1299         84
  11.3157         91
  11.5015         79
  11.6872         82
  11.8730         98
  12.0587         67
  12.2445         72
  12.4302         88
  12.6160         79
  12.8018         74
  12.9875         64
  13.1733         64
  13.3590         65
  13.5448         79
  13.7305         74
  13.9163         77
  14.1020         62
  14.2878         51
  14.4736         58
  14.6593         52
  14.8451         58
  15.0308         53
  15.2166         62
  15.4023         64
  15.5881         52
  15.7738         52
  15.9596         57
  16.1454         59
  16.3311         59
  16.5169         62
  16.7026         61
  16.8884         71
  17.0741         63
  17.2599         42
  17.4457         50
  17.6314         62
  17.8172         50
  18.0029         64
  18.1887         76
  18.3744         61
  18.5602         67
  18.7459         65
  18.9317         61
  19.1175         66
  19.3032         60
  19.4890         64
  19.6747         60
  19.8605         56
  20.0462         53
  20.2320         61
  20.4177         67
  20.6035         78
  20.7893         62
  20.9750         72
  21.1608         95
  21.3465        174
  21.5323         77
  21.7180         87
  21.9038         63
  22.0896         61
  22.2753         83
  22.4611         67
  22.6468         69
  22.8326         73
  23.0183         91
  23.2041         84
  23.3898         63
  23.5756         65
  23.7614         68
  23.9471         78
  24.1329         77
  24.3186         87
  24.5044         84
  24.6901         68
  24.8759         73
  25.0616         51
  25.2474         73
  25.4332         67
  25.6189         73
  25.8047         71
  25.9904         82
  26.1762         64
  26.3619         81
  26.5477         67
  26.7335         70
  26.9192         92
  27.1050         59
  27.2907         75
  27.4765         65
  27.6622         66
  27.8480         65
  28.0337         63
  28.2195         68
  28.4053         65
  28.5910         72
  28.7768         51
  28.9625         71
  29.1483         56
  29.3340         58
  29.5198         72
  29.7055         59
  29.8913         52
  30.0771         46
  30.2628         72
  30.4486         87
  30.6343         62
  30.8201         58
  31.0058         50
  31.1916         65
  31.3774         49
  31.5631         58
  31.7489         58
  31.9346         54
  32.1204         47
  32.3061         51
  32.4919         61
  32.6776         41
  32.8634         37
  33.0492         40
  33.2349         50
  33.4207         58
  33.6064         38
  33.7922         42
  33.9779         37
  34.1637         39
  34.3494         32
  34.5352         38
  34.7210         43
  34.9067         49
  35.0925         40
  35.2782         33
  35.4640         44
  35.6497         28
  35.8355         35
  36.0213         33
  36.2070         37
  36.3928         33
  36.5785         35
  36.7643         42
  36.9500         35
  37.1358         37
  37.3215         36
  37.5073         45
  37.6931         31
  37.8788         30
  38.0646         43
  38.2503         24
  38.4361         29
  38.6218         30
  38.8076         34
  38.9933         35
  39.1791         38
  39.3649         26
  39.5506         29
  39.7364         33
  39.9221         24
  40.1079         36
  40.2936         27
  40.4794         16
  40.6652         27
  40.8509         27
  41.0367         35
  41.2224         31
  41.4082         27
  41.5939         23
  41.7797         28
  41.9654         39
  42.1512         35
  42.3370         25
  42.5227         29
  42.7085         37
  42.8942         36
  43.0800         25
  43.2657         23
  43.4515         39
  43.6372         42
  43.8230         22
  44.0088         19
  44.1945         26
  44.3803         24
  44.5660         24
  44.7518         23
  44.9375         33
  45.1233         22
  45.3091         15
  45.4948         25
  45.6806         29
  45.8663         22
  46.0521         30
  46.2378         21
  46.4236         28
  46.6093         12
  46.7951         23
  46.9809         26
  47.1666         20
  47.3524         27
  47.5381         20
  47.7239         17
  47.9096         24
  48.0954         28
  48.2811         30
  48.4669         27
  48.6527         23
  48.8384         26
  49.0242         21
  49.2099         25
  49.3957         23
  49.5814         26
  49.7672         24
  49.9530         19
  50.1387         25
  50.3245         24
  50.5102         21
  50.6960         15
  50.8817         25
  51.0675         24
  51.2532         22
  51.4390         29
  51.6248         14
  51.8105         35
  51.9963         30
  52.1820         18
  52.3678         21
  52.5535         28
  52.7393         21
  52.9250         23
  53.1108         23
  53.2966         22
  53.4823         20
  53.6681         29
  53.8538         23
  54.0396         23
  54.2253         20
  54.4111         18
  54.5969         23
  54.7826         24
  54.9684         26
  55.1541         26
  55.3399         27
  55.5256         18
  55.7114         17
  55.8971         15
  56.0829         22
  56.2687         32
  56.4544         21
  56.6402         26
  56.8259         25
  57.0117         21
  57.1974         21
  57.3832         25
  57.5689         19
  57.7547         20
  57.9405         25
  58.1262         20
  58.3120         24
  58.4977         15
  58.6835         24
  58.8692         16
  59.0550         12
  59.2408         15
  59.4265         17
  59.6123         19
  59.7980         18
  59.9838         17
  60.0024         19

File: ML_20220720_32_SJD_4_LaB6-1min.csv
;,2THETA,
5.0000,105
5.1858,89
5.3715,97
5.5573,93
5.7430,68
5.9288,77
6.1145,58
6.3003,60
6.4860,72
6.6718,55
6.8576,68
7.0433,52
7.2291,57
7.4148,74
7.6006,58
7.7863,58
7.9721,64
8.1579,83
8.3436,60
8.5294,76
8.7151,62
8.9009,79
9.0866,78
9.2724,63
9.4581,67
9.6439,74
9.8297,101
10.0154,86
10.2012,84
10.3869,88
10.5727,109
10.7584,81
10.9442,91
11.1299,80
11.3157,96
11.5015,73
11.6872,105
11.8730,78
12.0587,72
12.2445,88
12.4302,82
12.6160,88
12.8018,70
12.9875,63
13.1733,79
13.3590,62
13.5448,76
13.7305,79
13.9163,68
14.1020,54
14.2878,75
14.4736,58
14.6593,57
14.8451,70
15.0308,60
15.2166,63
15.4023,58
15.5881,59
15.7738,66
15.9596,61
16.1454,56
16.3311,58
16.5169,46
16.7026,67
16.8884,45
17.0741,65
17.2599,44
17.4457,69
17.6314,54
17.8172,54
18.0029,72
18.1887,49
18.3744,56
18.5602,63
18.7459,61
18.9317,64
19.1175,59
19.3032,66
19.4890,72
19.6747,75
19.8605,73
20.0462,62
20.2320,65
20.4177,68
20.6035,77
20.7893,63
20.9750,79
21.1608,95
21.3465,188
21.5323,93
21.7180,78
21.9038,80
22.0896,82
22.2753,78
22.4611,88
22.6468,70
22.8326,81
23.0183,67
23.2041,77
23.3898,91
23.5756,75
23.7614,59
23.9471,77
24.1329,75
24.3186,73
24.5044,82
24.6901,78
24.8759,82
25.0616,71
25.2474,79
25.4332,56
25.6189,67
25.8047,79
25.9904,50
26.1762,55
26.3619,61
26.5477,73
26.7335,62
26.9192,76
27.1050,77
27.2907,85
27.4765,59
27.6622,59
27.8480,65
28.0337,58
28.2195,63
28.4053,67
28.5910,64
28.7768,60
28.9625,64
29.1483,51
29.3340,61
29.5198,61
29.7055,56
29.8913,61
30.0771,57
30.2628,82
30.4486,110
30.6343,52
30.8201,53
31.0058,50
31.1916,50
31.3774,59
31.5631,44
31.7489,48
31.9346,61
32.1204,38
32.3061,43
32.4919,45
32.6776,43
32.8634,40
33.0492,53
33.2349,42
33.4207,37
33.6064,40
33.7922,45
33.9779,32
34.1637,40
34.3494,45
34.5352,40
34.7210,53
34.9067,41
35.0925,41
35.2782,33
35.4640,40
35.6497,33
35.8355,28
36.0213,34
36.2070,29
36.3928,43
36.5785,33
36.7643,40
36.9500,33
37.1358,29
37.3215,41
37.5073,35
37.6931,29
37.8788,42
38.0646,30
38.2503,31
38.4361,31
38.6218,41
38.8076,40
38.9933,23
39.1791,29
39.3649,37
39.5506,25
39.7364,30
39.9221,25
40.1079,17
40.2936,32
40.4794,25
40.6652,33
40.8509,19
41.0367,29
41.2224,31
41.4082,26
41.5939,27
41.7797,29
41.9654,35
42.1512,23
42.3370,35
42.5227,27
42.7085,30
42.8942,33
43.0800,26
43.2657,32
43.4515,32
43.6372,36
43.8230,27
44.0088,25
44.1945,38
44.3803,24
44.5660,33
44.7518,28
44.9375,34
45.1233,28
45.3091,21
45.4948,23
45.6806,24
45.8663,16
46.0521,19
46.2378,22
46.4236,28
46.6093,23
46.7951,25
46.9809,22
47.1666,27
47.3524,19
47.5381,31
47.7239,19
47.9096,21
48.0954,19
48.2811,27
48.4669,26
48.6527,24
48.8384,24
49.0242,35
49.2099,16
49.3957,26
49.5814,19
49.7672,19
49.9530,22
50.1387,22
50.3245,27
50.5102,27
50.6960,23
50.8817,17
51.0675,31
51.2532,22
51.4390,14
51.6248,15
51.8105,23
51.9963,23
52.1820,28
52.3678,26
52.5535,27
52.7393,21
52.9250,26
53.1108,18
53.2966,16
53.4823,22
53.6681,22
53.8538,14
54.0396,15
54.2253,12
54.4111,23
54.5969,19
54.7826,12
54.9684,17
55.1541,17
55.3399,17
55.5256,26
55.7114,19
55.8971,16
56.0829,22
56.2687,25
56.4544,28
56.6402,21
56.8259,15
57.0117,23
57.1974,25
57.3832,26
57.5689,14
57.7547,25
57.9405,22
58.1262,26
58.3120,17
58.4977,22
58.6835,19
58.8692,22
59.0550,22
59.2408,24
59.4265,21
59.6123,22
59.7980,23
59.9838,31
60.0024,29