Folder: xrd_clustering/notebooks/data/xrd_data (part 29)

File: ML_20220720_6_SJD_4_LaB6-4min.uxd
; (content of file Y:\Sam\Apurva-07-20-2022\puck2\ML_20220720_6_SJD_0_LaB6-4min.raw)
_FILEVERSION = 3
_SAMPLE = ML_20220720_6_SJD_0_LaB6-4min
_+SAMPLE =
_SITE = USA
_USER = Administrator
_GONIOMETER_CODE = 20
; Goniometer : D8 theta/2theta, stage : Unknown
_ATTACHMENTS_CODE = 0
_GONIOMETER_RADIUS = 200.5
_FIXED_DIVSLIT = 0.6
_FIXED_SAMPLESLIT = 0
_SOLLER_SLITS = 2
_FIXED_DETSLIT = 9.55
_MONOCHROMATOR = 0
; Incident beam monochromator : None
_SOLLER_SLITS_2 = N
_THIN_FILM = N
_BETA_FILTER = Y
_FIXED_ANTISLIT = 5.89
_ANALYZER_CODE = 0
; Received beam analyzer : None
_DATEMEASURED = "25-Jul-2022 17:47:01"
_WL_UNIT = A
_WL1 = 1.5406
_WL2 = 1.54439
_WL3 = 1.39222
_WLRATIO = 0.5
_ANODE = Cu
_V4_INF_CREATOR = XRDWizard
_V4_INF_CREATOR_VERSION = V2.9.0.22
_V4_INF_WIZARD_VERSION = V2.9.0.22
_V4_INF_WIZARD_ADDINS = V2.9.0.22
_V4_INF_WIZARD_DOCTYPE = XRD
_V4_INF_OSUSER = McQueenLab
_V4_INF_USER = Administrator
_V4_INF_SITE = USA
_V4_INF_SAMPLEID = ML_20220720_6_SJD_0_LaB6-4min

; Data for range 1
_DRIVE = COUPLED
_STEPTIME = 11.28
_STEPSIZE = 0.0185756
_STEPMODE = C
_START = 5
_THETA = 2.5
_2THETA = 5
_KHI = 0
_PHI = 0
_X = 0
_Y = 0
_Z = 0
_DETECTOR = 5
; Detector type : Unknown
_DETECTORSLIT = unkn
_AUX1 = 0
_AUX2 = 0
_AUX3 = 0
_TIMESTARTED = 14
_TEMP_RATE = -1
_TEMP_DELAY = -1
_KV = 40
_MA = 40
_RANGE_WL = 1.5406
_3DPLANE = 0
_V4_ADDITIONALDETECTOR = 257
_V4_PSD2THETA = 3.365
_V4_PSDCHANNEL1 = 0
_V4_PSDAPERTURE = 12.68
_V4_PSDTYPE = 5
_V4_PSDFIXED = 0
_V4_COUNTERS_MASK = 4096
_V4_DRIVES_MASK = 0
_V4_ENCODERS_MASK = 0
_2THETACOUNTS = 1
; 2THETA  PSD
   5.0000        263
   5.1858        280
   5.3715        225
   5.5573        202
   5.7430        200
   5.9288        232
   6.1145        199
   6.3003        219
   6.4860        172
   6.6718        162
   6.8576        159
   7.0433        164
   7.2291        182
   7.4148        164
   7.6006        174
   7.7863        176
   7.9721        200
   8.1579        181
   8.3436        223
   8.5294        202
   8.7151        190
   8.9009        220
   9.0866        224
   9.2724        196
   9.4581        214
   9.6439        259
   9.8297        222
  10.0154        249
  10.2012        225
  10.3869        252
  10.5727        251
  10.7584        258
  10.9442        218
  11.1299        244
  11.3157        213
  11.5015        223
  11.6872        215
  11.8730        240
  12.0587        221
  12.2445        234
  12.4302        223
  12.6160        206
  12.8018        192
  12.9875        207
  13.1733        167
  13.3590        178
  13.5448        190
  13.7305        188
  13.9163        184
  14.1020        211
  14.2878        187
  14.4736        208
  14.6593        166
  14.8451        188
  15.0308        171
  15.2166        181
  15.4023        170
  15.5881        173
  15.7738        165
  15.9596        170
  16.1454        171
  16.3311        178
  16.5169        181
  16.7026        189
  16.8884        150
  17.0741        158
  17.2599        187
  17.4457        173
  17.6314        172
  17.8172        186
  18.0029        192
  18.1887        165
  18.3744        162
  18.5602        155
  18.7459        184
  18.9317        170
  19.1175        167
  19.3032        174
  19.4890        169
  19.6747        157
  19.8605        182
  20.0462        176
  20.2320        174
  20.4177        166
  20.6035        204
  20.7893        196
  20.9750        170
  21.1608        221
  21.3465        534
  21.5323        231
  21.7180        168
  21.9038        217
  22.0896        179
  22.2753        195
  22.4611        199
  22.6468        197
  22.8326        208
  23.0183        235
  23.2041        194
  23.3898        191
  23.5756        195
  23.7614        216
  23.9471        209
  24.1329        187
  24.3186        225
  24.5044        207
  24.6901        181
  24.8759        163
  25.0616        204
  25.2474        172
  25.4332        208
  25.6189        189
  25.8047        247
  25.9904        201
  26.1762        194
  26.3619        211
  26.5477        198
  26.7335        188
  26.9192        180
  27.1050        190
  27.2907        214
  27.4765        199
  27.6622        179
  27.8480        176
  28.0337        166
  28.2195        201
  28.4053        159
  28.5910        169
  28.7768        142
  28.9625        175
  29.1483        151
  29.3340        158
  29.5198        186
  29.7055        159
  29.8913        156
  30.0771        157
  30.2628        161
  30.4486        250
  30.6343        154
  30.8201        138
  31.0058        164
  31.1916        162
  31.3774        136
  31.5631        126
  31.7489        123
  31.9346        138
  32.1204        137
  32.3061        149
  32.4919        140
  32.6776        143
  32.8634        130
  33.0492        118
  33.2349        130
  33.4207        116
  33.6064        126
  33.7922        128
  33.9779        138
  34.1637        122
  34.3494        131
  34.5352        109
  34.7210        142
  34.9067        122
  35.0925        103
  35.2782         96
  35.4640        114
  35.6497        104
  35.8355        112
  36.0213         95
  36.2070        104
  36.3928         97
  36.5785         89
  36.7643         95
  36.9500         81
  37.1358         94
  37.3215         86
  37.5073        123
  37.6931         93
  37.8788        102
  38.0646         82
  38.2503         78
  38.4361         85
  38.6218         84
  38.8076         85
  38.9933         78
  39.1791         78
  39.3649         78
  39.5506         90
  39.7364         77
  39.9221         61
  40.1079         81
  40.2936        105
  40.4794         78
  40.6652         70
  40.8509         74
  41.0367         78
  41.2224         92
  41.4082         72
  41.5939         73
  41.7797         79
  41.9654         81
  42.1512         74
  42.3370         68
  42.5227         70
  42.7085         67
  42.8942         69
  43.0800         72
  43.2657         90
  43.4515         94
  43.6372         99
  43.8230         77
  44.0088         63
  44.1945         69
  44.3803         74
  44.5660         92
  44.7518         70
  44.9375         69
  45.1233         94
  45.3091         62
  45.4948         62
  45.6806         73
  45.8663         74
  46.0521         66
  46.2378         69
  46.4236         62
  46.6093         63
  46.7951         87
  46.9809         73
  47.1666         68
  47.3524         70
  47.5381         81
  47.7239         62
  47.9096         57
  48.0954         69
  48.2811         68
  48.4669         71
  48.6527         71
  48.8384         73
  49.0242         86
  49.2099         62
  49.3957         64
  49.5814         57
  49.7672         67
  49.9530         63
  50.1387         56
  50.3245         59
  50.5102         63
  50.6960         54
  50.8817         63
  51.0675         62
  51.2532         59
  51.4390         67
  51.6248         63
  51.8105         69
  51.9963         53
  52.1820         55
  52.3678         57
  52.5535         53
  52.7393         57
  52.9250         55
  53.1108         62
  53.2966         51
  53.4823         59
  53.6681         61
  53.8538         73
  54.0396         70
  54.2253         66
  54.4111         60
  54.5969         71
  54.7826         59
  54.9684         60
  55.1541         61
  55.3399         46
  55.5256         53
  55.7114         55
  55.8971         55
  56.0829         57
  56.2687         61
  56.4544         77
  56.6402         52
  56.8259         69
  57.0117         44
  57.1974         51
  57.3832         52
  57.5689         62
  57.7547         61
  57.9405         64
  58.1262         54
  58.3120         63
  58.4977         61
  58.6835         60
  58.8692         72
  59.0550         61
  59.2408         56
  59.4265         47
  59.6123         75
  59.7980         57
  59.9838         54
  60.0024         40

File: ML_20220720_7_SJD_4_LaB6-1min.csv
;,2THETA,
5.0000,92
5.1858,86
5.3715,74
5.5573,84
5.7430,59
5.9288,72
6.1145,76
6.3003,64
6.4860,55
6.6718,50
6.8576,57
7.0433,55
7.2291,56
7.4148,50
7.6006,59
7.7863,64
7.9721,76
8.1579,60
8.3436,84
8.5294,67
8.7151,76
8.9009,67
9.0866,74
9.2724,76
9.4581,78
9.6439,91
9.8297,83
10.0154,88
10.2012,74
10.3869,94
10.5727,105
10.7584,103
10.9442,88
11.1299,81
11.3157,81
11.5015,66
11.6872,78
11.8730,82
12.0587,77
12.2445,73
12.4302,69
12.6160,77
12.8018,61
12.9875,86
13.1733,79
13.3590,60
13.5448,80
13.7305,57
13.9163,68
14.1020,52
14.2878,70
14.4736,56
14.6593,48
14.8451,61
15.0308,55
15.2166,59
15.4023,58
15.5881,63
15.7738,62
15.9596,60
16.1454,60
16.3311,56
16.5169,41
16.7026,62
16.8884,63
17.0741,58
17.2599,63
17.4457,63
17.6314,56
17.8172,58
18.0029,51
18.1887,67
18.3744,57
18.5602,51
18.7459,57
18.9317,73
19.1175,73
19.3032,65
19.4890,61
19.6747,49
19.8605,68
20.0462,70
20.2320,65
20.4177,63
20.6035,60
20.7893,73
20.9750,57
21.1608,84
21.3465,199
21.5323,84
21.7180,68
21.9038,82
22.0896,61
22.2753,76
22.4611,71
22.6468,77
22.8326,67
23.0183,58
23.2041,76
23.3898,69
23.5756,91
23.7614,69
23.9471,62
24.1329,69
24.3186,79
24.5044,72
24.6901,67
24.8759,68
25.0616,72
25.2474,56
25.4332,65
25.6189,71
25.8047,80
25.9904,68
26.1762,61
26.3619,75
26.5477,64
26.7335,72
26.9192,64
27.1050,70
27.2907,92
27.4765,58
27.6622,49
27.8480,67
28.0337,75
28.2195,58
28.4053,64
28.5910,76
28.7768,61
28.9625,53
29.1483,58
29.3340,69
29.5198,57
29.7055,55
29.8913,71
30.0771,56
30.2628,65
30.4486,78
30.6343,59
30.8201,50
31.0058,63
31.1916,53
31.3774,63
31.5631,48
31.7489,49
31.9346,58
32.1204,58
32.3061,48
32.4919,46
32.6776,52
32.8634,44
33.0492,49
33.2349,54
33.4207,47
33.6064,44
33.7922,41
33.9779,41
34.1637,50
34.3494,36
34.5352,42
34.7210,44
34.9067,49
35.0925,35
35.2782,43
35.4640,41
35.6497,40
35.8355,30
36.0213,42
36.2070,31
36.3928,38
36.5785,30
36.7643,35
36.9500,26
37.1358,25
37.3215,36
37.5073,41
37.6931,29
37.8788,25
38.0646,27
38.2503,23
38.4361,43
38.6218,26
38.8076,28
38.9933,24
39.1791,28
39.3649,35
39.5506,30
39.7364,30
39.9221,28
40.1079,37
40.2936,21
40.4794,29
40.6652,26
40.8509,39
41.0367,31
41.2224,30
41.4082,28
41.5939,29
41.7797,24
41.9654,20
42.1512,24
42.3370,26
42.5227,23
42.7085,27
42.8942,37
43.0800,29
43.2657,34
43.4515,35
43.6372,39
43.8230,23
44.0088,33
44.1945,24
44.3803,27
44.5660,26
44.7518,27
44.9375,34
45.1233,25
45.3091,20
45.4948,22
45.6806,33
45.8663,29
46.0521,16
46.2378,21
46.4236,21
46.6093,16
46.7951,15
46.9809,22
47.1666,22
47.3524,25
47.5381,16
47.7239,30
47.9096,26
48.0954,21
48.2811,24
48.4669,25
48.6527,23
48.8384,24
49.0242,34
49.2099,18
49.3957,17
49.5814,14
49.7672,16
49.9530,18
50.1387,27
50.3245,27
50.5102,18
50.6960,23
50.8817,24
51.0675,33
51.2532,25
51.4390,25
51.6248,24
51.8105,28
51.9963,13
52.1820,18
52.3678,29
52.5535,21
52.7393,16
52.9250,18
53.1108,21
53.2966,28
53.4823,24
53.6681,23
53.8538,27
54.0396,32
54.2253,21
54.4111,19
54.5969,25
54.7826,16
54.9684,25
55.1541,19
55.3399,15
55.5256,19
55.7114,22
55.8971,12
56.0829,27
56.2687,23
56.4544,28
56.6402,28
56.8259,20
57.0117,23
57.1974,16
57.3832,21
57.5689,20
57.7547,13
57.9405,21
58.1262,21
58.3120,22
58.4977,16
58.6835,21
58.8692,19
59.0550,18
59.2408,20
59.4265,19
59.6123,14
59.7980,23
59.9838,19
60.0024,23

File: ML_20220720_7_SJD_4_LaB6-4min.csv
;,2THETA,
5.0000,256
5.1858,232
5.3715,213
5.5573,227
5.7430,223
5.9288,207
6.1145,200
6.3003,166
6.4860,175
6.6718,171
6.8576,195
7.0433,167
7.2291,176
7.4148,168
7.6006,159
7.7863,154
7.9721,171
8.1579,191
8.3436,195
8.5294,201
8.7151,187
8.9009,200
9.0866,250
9.2724,234
9.4581,236
9.6439,229
9.8297,239
10.0154,230
10.2012,232
10.3869,230
10.5727,234
10.7584,253
10.9442,260
11.1299,245
11.3157,223
11.5015,231
11.6872,242
11.8730,221
12.0587,242
12.2445,226
12.4302,217
12.6160,217
12.8018,216
12.9875,220
13.1733,191
13.3590,206
13.5448,209
13.7305,173
13.9163,179
14.1020,189
14.2878,186
14.4736,176
14.6593,185
14.8451,175
15.0308,179
15.2166,182
15.4023,160
15.5881,156
15.7738,185
15.9596,178
16.1454,170
16.3311,164
16.5169,159
16.7026,168
16.8884,162
17.0741,165
17.2599,162
17.4457,179
17.6314,148
17.8172,172
18.0029,171
18.1887,185
18.3744,146
18.5602,153
18.7459,182
18.9317,187
19.1175,173
19.3032,171
19.4890,152
19.6747,150
19.8605,214
20.0462,190
20.2320,183
20.4177,186
20.6035,169
20.7893,191
20.9750,182
21.1608,260
21.3465,508
21.5323,194
21.7180,217
21.9038,172
22.0896,198
22.2753,193
22.4611,186
22.6468,181
22.8326,183
23.0183,205
23.2041,186
23.3898,196
23.5756,206
23.7614,184
23.9471,211
24.1329,200
24.3186,223
24.5044,215
24.6901,206
24.8759,187
25.0616,184
25.2474,202
25.4332,181
25.6189,217
25.8047,195
25.9904,208
26.1762,198
26.3619,187
26.5477,192
26.7335,211
26.9192,189
27.1050,181
27.2907,220
27.4765,178
27.6622,190
27.8480,194
28.0337,172
28.2195,180
28.4053,179
28.5910,147
28.7768,165
28.9625,161
29.1483,180
29.3340,176
29.5198,159
29.7055,168
29.8913,149
30.0771,150
30.2628,176
30.4486,253
30.6343,146
30.8201,150
31.0058,163
31.1916,144
31.3774,138
31.5631,140
31.7489,125
31.9346,133
32.1204,157
32.3061,138
32.4919,134
32.6776,146
32.8634,119
33.0492,109
33.2349,142
33.4207,147
33.6064,127
33.7922,122
33.9779,103
34.1637,125
34.3494,113
34.5352,136
34.7210,130
34.9067,140
35.0925,98
35.2782,99
35.4640,91
35.6497,85
35.8355,105
36.0213,92
36.2070,96
36.3928,112
36.5785,111
36.7643,95
36.9500,100
37.1358,90
37.3215,105
37.5073,129
37.6931,85
37.8788,85
38.0646,92
38.2503,82
38.4361,80
38.6218,76
38.8076,92
38.9933,100
39.1791,81
39.3649,80
39.5506,76
39.7364,63
39.9221,82
40.1079,82
40.2936,80
40.4794,65
40.6652,87
40.8509,72
41.0367,81
41.2224,81
41.4082,95
41.5939,69
41.7797,85
41.9654,86
42.1512,73
42.3370,80
42.5227,96
42.7085,77
42.8942,82
43.0800,74
43.2657,72
43.4515,81
43.6372,97
43.8230,78
44.0088,74
44.1945,76
44.3803,67
44.5660,78
44.7518,71
44.9375,70
45.1233,68
45.3091,78
45.4948,73
45.6806,80
45.8663,75
46.0521,63
46.2378,76
46.4236,77
46.6093,70
46.7951,66
46.9809,68
47.1666,60
47.3524,63
47.5381,59
47.7239,75
47.9096,71
48.0954,58
48.2811,65
48.4669,66
48.6527,65
48.8384,88
49.0242,77
49.2099,64
49.3957,57
49.5814,62
49.7672,64
49.9530,67
50.1387,74
50.3245,66
50.5102,58
50.6960,66
50.8817,56
51.0675,47
51.2532,60
51.4390,65
51.6248,66
51.8105,76
51.9963,64
52.1820,71
52.3678,57
52.5535,68
52.7393,55
52.9250,62
53.1108,57
53.2966,50
53.4823,71
53.6681,67
53.8538,51
54.0396,62
54.2253,74
54.4111,62
54.5969,63
54.7826,70
54.9684,50
55.1541,49
55.3399,70
55.5256,60
55.7114,63
55.8971,63
56.0829,57
56.2687,58
56.4544,56
56.6402,52
56.8259,56
57.0117,60
57.1974,46
57.3832,48
57.5689,64
57.7547,50
57.9405,63
58.1262,53
58.3120,44
58.4977,49
58.6835,71
58.8692,57
59.0550,52
59.2408,53
59.4265,71
59.6123,60
59.7980,57
59.9838,56
60.0024,57

File: ML_20220720_8_SJD_4_LaB6-1min.csv
;,2THETA,
5.0000,84
5.1858,82
5.3715,88
5.5573,76
5.7430,77
5.9288,86
6.1145,83
6.3003,73
6.4860,61
6.6718,79
6.8576,53
7.0433,65
7.2291,51
7.4148,52
7.6006,64
7.7863,66
7.9721,78
8.1579,67
8.3436,55
8.5294,74
8.7151,66
8.9009,82
9.0866,98
9.2724,68
9.4581,75
9.6439,76
9.8297,102
10.0154,91
10.2012,76
10.3869,98
10.5727,87
10.7584,84
10.9442,88
11.1299,86
11.3157,85
11.5015,89
11.6872,79
11.8730,78
12.0587,74
12.2445,70
12.4302,70
12.6160,73
12.8018,74
12.9875,78
13.1733,68
13.3590,77
13.5448,78
13.7305,59
13.9163,51
14.1020,61
14.2878,65
14.4736,61
14.6593,65
14.8451,51
15.0308,80
15.2166,62
15.4023,66
15.5881,63
15.7738,70
15.9596,41
16.1454,45
16.3311,63
16.5169,60
16.7026,49
16.8884,72
17.0741,54
17.2599,82
17.4457,46
17.6314,65
17.8172,59
18.0029,57
18.1887,52
18.3744,54
18.5602,62
18.7459,57
18.9317,60
19.1175,61
19.3032,62
19.4890,65
19.6747,61
19.8605,86
20.0462,68
20.2320,71
20.4177,70
20.6035,71
20.7893,73
20.9750,58
21.1608,93
21.3465,179
21.5323,83
21.7180,68
21.9038,74
22.0896,56
22.2753,87
22.4611,74
22.6468,77
22.8326,91
23.0183,71
23.2041,84
23.3898,77
23.5756,78
23.7614,71
23.9471,66
24.1329,80
24.3186,71
24.5044,62
24.6901,52
24.8759,66
25.0616,74
25.2474,64
25.4332,72
25.6189,68
25.8047,62
25.9904,76
26.1762,80
26.3619,76
26.5477,68
26.7335,86
26.9192,87
27.1050,74
27.2907,72
27.4765,69
27.6622,73
27.8480,56
28.0337,58
28.2195,45
28.4053,68
28.5910,59
28.7768,58
28.9625,58
29.1483,50
29.3340,51
29.5198,48
29.7055,66
29.8913,49
30.0771,44
30.2628,48
30.4486,96
30.6343,54
30.8201,42
31.0058,46
31.1916,53
31.3774,59
31.5631,56
31.7489,38
31.9346,59
32.1204,54
32.3061,41
32.4919,45
32.6776,49
32.8634,54
33.0492,34
33.2349,44
33.4207,37
33.6064,37
33.7922,46
33.9779,36
34.1637,43
34.3494,41
34.5352,46
34.7210,57
34.9067,36
35.0925,42
35.2782,49
35.4640,26
35.6497,44
35.8355,31
36.0213,27
36.2070,31
36.3928,44
36.5785,30
36.7643,31
36.9500,31
37.1358,40
37.3215,34
37.5073,44
37.6931,36
37.8788,25
38.0646,26
38.2503,27
38.4361,29
38.6218,26
38.8076,29
38.9933,26
39.1791,34
39.3649,27
39.5506,38
39.7364,38
39.9221,26
40.1079,31
40.2936,23
40.4794,19
40.6652,26
40.8509,21
41.0367,26
41.2224,27
41.4082,24
41.5939,26
41.7797,31
41.9654,31
42.1512,21
42.3370,23
42.5227,31
42.7085,25
42.8942,34
43.0800,24
43.2657,39
43.4515,37
43.6372,32
43.8230,36
44.0088,23
44.1945,30
44.3803,25
44.5660,28
44.7518,31
44.9375,32
45.1233,32
45.3091,21
45.4948,20
45.6806,26
45.8663,18
46.0521,22
46.2378,21
46.4236,23
46.6093,24
46.7951,24
46.9809,25
47.1666,28
47.3524,30
47.5381,29
47.7239,24
47.9096,26
48.0954,24
48.2811,25
48.4669,31
48.6527,26
48.8384,28
49.0242,24
49.2099,15
49.3957,23
49.5814,18
49.7672,27
49.9530,29
50.1387,31
50.3245,33
50.5102,16
50.6960,24
50.8817,19
51.0675,25
51.2532,28
51.4390,22
51.6248,24
51.8105,23
51.9963,24
52.1820,23
52.3678,23
52.5535,22
52.7393,10
52.9250,21
53.1108,23
53.2966,15
53.4823,20
53.6681,25
53.8538,25
54.0396,22
54.2253,22
54.4111,16
54.5969,23
54.7826,23
54.9684,28
55.1541,30
55.3399,12
55.5256,22
55.7114,24
55.8971,18
56.0829,26
56.2687,23
56.4544,22
56.6402,21
56.8259,21
57.0117,21
57.1974,25
57.3832,16
57.5689,26
57.7547,16
57.9405,25
58.1262,16
58.3120,19
58.4977,18
58.6835,19
58.8692,15
59.0550,18
59.2408,16
59.4265,19
59.6123,17
59.7980,22
59.9838,26
60.0024,17

File: ML_20220720_8_SJD_4_LaB6-4min.csv
;,2THETA,
5.0000,312
5.1858,250
5.3715,226
5.5573,229
5.7430,221
5.9288,192
6.1145,200
6.3003,186
6.4860,187
6.6718,175
6.8576,166
7.0433,154
7.2291,161
7.4148,158
7.6006,176
7.7863,184
7.9721,184
8.1579,205
8.3436,205
8.5294,204
8.7151,212
8.9009,205
9.0866,232
9.2724,236
9.4581,200
9.6439,225
9.8297,239
10.0154,254
10.2012,232
10.3869,247
10.5727,229
10.7584,229
10.9442,235
11.1299,243
11.3157,240
11.5015,240
11.6872,217
11.8730,245
12.0587,236
12.2445,243
12.4302,257
12.6160,224
12.8018,206
12.9875,200
13.1733,234
13.3590,224
13.5448,198
13.7305,202
13.9163,226
14.1020,203
14.2878,176
14.4736,164
14.6593,158
14.8451,195
15.0308,165
15.2166,162
15.4023,166
15.5881,174
15.7738,177
15.9596,143
16.1454,156
16.3311,173
16.5169,150
16.7026,161
16.8884,167
17.0741,189
17.2599,160
17.4457,137
17.6314,141
17.8172,188
18.0029,166
18.1887,152
18.3744,164
18.5602,160
18.7459,177
18.9317,161
19.1175,175
19.3032,163
19.4890,151
19.6747,204
19.8605,162
20.0462,177
20.2320,186
20.4177,177
20.6035,194
20.7893,183
20.9750,175
21.1608,222
21.3465,502
21.5323,210
21.7180,174
21.9038,199
22.0896,206
22.2753,199
22.4611,208
22.6468,195
22.8326,188
23.0183,210
23.2041,199
23.3898,223
23.5756,202
23.7614,176
23.9471,196
24.1329,226
24.3186,236
24.5044,186
24.6901,195
24.8759,215
25.0616,164
25.2474,204
25.4332,189
25.6189,184
25.8047,196
25.9904,200
26.1762,191
26.3619,195
26.5477,186
26.7335,202
26.9192,183
27.1050,200
27.2907,208
27.4765,203
27.6622,174
27.8480,174
28.0337,199
28.2195,207
28.4053,176
28.5910,161
28.7768,170
28.9625,153
29.1483,162
29.3340,171
29.5198,156
29.7055,169
29.8913,176
30.0771,172
30.2628,158
30.4486,228
30.6343,151
30.8201,146
31.0058,154
31.1916,143
31.3774,157
31.5631,137
31.7489,159
31.9346,138
32.1204,152
32.3061,112
32.4919,144
32.6776,128
32.8634,130
33.0492,140
33.2349,120
33.4207,91
33.6064,128
33.7922,120
33.9779,115
34.1637,109
34.3494,94
34.5352,128
34.7210,129
34.9067,114
35.0925,116
35.2782,97
35.4640,112
35.6497,98
35.8355,88
36.0213,101
36.2070,95
36.3928,94
36.5785,94
36.7643,85
36.9500,97
37.1358,110
37.3215,104
37.5073,115
37.6931,69
37.8788,86
38.0646,93
38.2503,99
38.4361,77
38.6218,88
38.8076,93
38.9933,97
39.1791,78
39.3649,92
39.5506,92
39.7364,66
39.9221,64
40.1079,73
40.2936,69
40.4794,74
40.6652,74
40.8509,79
41.0367,67
41.2224,74
41.4082,66
41.5939,65
41.7797,72
41.9654,65
42.1512,80
42.3370,68
42.5227,90
42.7085,88
42.8942,86
43.0800,83
43.2657,96
43.4515,84
43.6372,101
43.8230,70
44.0088,68
44.1945,67
44.3803,63
44.5660,72
44.7518,87
44.9375,79
45.1233,76
45.3091,64
45.4948,62
45.6806,72
45.8663,73
46.0521,68
46.2378,77
46.4236,71
46.6093,70
46.7951,52
46.9809,56
47.1666,66
47.3524,55
47.5381,67
47.7239,69
47.9096,56
48.0954,71
48.2811,66
48.4669,63
48.6527,54
48.8384,59
49.0242,86
49.2099,74
49.3957,58
49.5814,63
49.7672,58
49.9530,63
50.1387,62
50.3245,66
50.5102,66
50.6960,60
50.8817,65
51.0675,59
51.2532,69
51.4390,69
51.6248,54
51.8105,68
51.9963,69
52.1820,69
52.3678,53
52.5535,69
52.7393,54
52.9250,63
53.1108,65
53.2966,55
53.4823,50
53.6681,49
53.8538,72
54.0396,55
54.2253,57
54.4111,50
54.5969,54
54.7826,60
54.9684,55
55.1541,59
55.3399,60
55.5256,58
55.7114,49
55.8971,48
56.0829,55
56.2687,74
56.4544,73
56.6402,56
56.8259,47
57.0117,52
57.1974,58
57.3832,62
57.5689,56
57.7547,54
57.9405,56
58.1262,56
58.3120,63
58.4977,52
58.6835,48
58.8692,49
59.0550,48
59.2408,56
59.4265,68
59.6123,60
59.7980,59
59.9838,48
60.0024,59

File: ML_20220720_9_SJD_4_LaB6-1min.csv
;,2THETA,
5.0000,92
5.1858,98
5.3715,70
5.5573,95
5.7430,76
5.9288,77
6.1145,64
6.3003,62
6.4860,70
6.6718,57
6.8576,48
7.0433,52
7.2291,51
7.4148,67
7.6006,58
7.7863,74
7.9721,69
8.1579,66
8.3436,68
8.5294,67
8.7151,70
8.9009,98
9.0866,74
9.2724,84
9.4581,88
9.6439,61
9.8297,80
10.0154,89
10.2012,78
10.3869,75
10.5727,79
10.7584,96
10.9442,89
11.1299,107
11.3157,100
11.5015,81
11.6872,80
11.8730,79
12.0587,65
12.2445,89
12.4302,77
12.6160,75
12.8018,68
12.9875,79
13.1733,54
13.3590,70
13.5448,63
13.7305,66
13.9163,67
14.1020,54
14.2878,55
14.4736,55
14.6593,70
14.8451,65
15.0308,61
15.2166,71
15.4023,66
15.5881,50
15.7738,70
15.9596,53
16.1454,51
16.3311,53
16.5169,62
16.7026,74
16.8884,52
17.0741,70
17.2599,49
17.4457,75
17.6314,59
17.8172,54
18.0029,57
18.1887,54
18.3744,53
18.5602,68
18.7459,70
18.9317,65
19.1175,65
19.3032,59
19.4890,58
19.6747,71
19.8605,59
20.0462,59
20.2320,81
20.4177,82
20.6035,66
20.7893,65
20.9750,86
21.1608,77
21.3465,191
21.5323,67
21.7180,56
21.9038,61
22.0896,65
22.2753,62
22.4611,70
22.6468,86
22.8326,95
23.0183,74
23.2041,89
23.3898,70
23.5756,63
23.7614,78
23.9471,70
24.1329,52
24.3186,82
24.5044,80
24.6901,69
24.8759,63
25.0616,68
25.2474,68
25.4332,63
25.6189,60
25.8047,59
25.9904,72
26.1762,77
26.3619,61
26.5477,62
26.7335,69
26.9192,74
27.1050,71
27.2907,60
27.4765,72
27.6622,67
27.8480,57
28.0337,56
28.2195,58
28.4053,67
28.5910,64
28.7768,56
28.9625,51
29.1483,58
29.3340,68
29.5198,57
29.7055,57
29.8913,64
30.0771,49
30.2628,55
30.4486,93
30.6343,40
30.8201,48
31.0058,48
31.1916,56
31.3774,43
31.5631,38
31.7489,42
31.9346,58
32.1204,45
32.3061,68
32.4919,50
32.6776,50
32.8634,38
33.0492,42
33.2349,37
33.4207,39
33.6064,49
33.7922,47
33.9779,32
34.1637,42
34.3494,43
34.5352,36
34.7210,66
34.9067,46
35.0925,40
35.2782,34
35.4640,28
35.6497,30
35.8355,35
36.0213,37
36.2070,39
36.3928,26
36.5785,33
36.7643,55
36.9500,44
37.1358,30
37.3215,34
37.5073,38
37.6931,35
37.8788,39
38.0646,31
38.2503,30
38.4361,35
38.6218,26
38.8076,33
38.9933,23
39.1791,24
39.3649,36
39.5506,27
39.7364,35
39.9221,36
40.1079,28
40.2936,35
40.4794,32
40.6652,30
40.8509,33
41.0367,33
41.2224,17
41.4082,28
41.5939,33
41.7797,37
41.9654,30
42.1512,25
42.3370,24
42.5227,13
42.7085,30
42.8942,25
43.0800,26
43.2657,34
43.4515,30
43.6372,32
43.8230,20
44.0088,28
44.1945,15
44.3803,30
44.5660,26
44.7518,17
44.9375,18
45.1233,35
45.3091,39
45.4948,29
45.6806,35
45.8663,24
46.0521,21
46.2378,29
46.4236,23
46.6093,23
46.7951,20
46.9809,22
47.1666,24
47.3524,25
47.5381,28
47.7239,24
47.9096,20
48.0954,25
48.2811,21
48.4669,25
48.6527,38
48.8384,16
49.0242,27
49.2099,22
49.3957,21
49.5814,22
49.7672,20
49.9530,18
50.1387,22
50.3245,26
50.5102,13
50.6960,19
50.8817,23
51.0675,17
51.2532,25
51.4390,17
51.6248,19
51.8105,26
51.9963,26
52.1820,23
52.3678,25
52.5535,18
52.7393,34
52.9250,18
53.1108,20
53.2966,21
53.4823,26
53.6681,20
53.8538,24
54.0396,27
54.2253,18
54.4111,19
54.5969,20
54.7826,24
54.9684,19
55.1541,28
55.3399,18
55.5256,20
55.7114,13
55.8971,18
56.0829,17
56.2687,23
56.4544,24
56.6402,19
56.8259,15
57.0117,23
57.1974,21
57.3832,28
57.5689,16
57.7547,18
57.9405,21
58.1262,26
58.3120,18
58.4977,16
58.6835,14
58.8692,20
59.0550,21
59.2408,11
59.4265,22
59.6123,21
59.7980,20
59.9838,20
60.0024,15