Folder: xrd_clustering/notebooks/data/xrd_data (part 32)

File: ML_20220720_17_SJD_4_LaB6-1min.uxd
; (content of file Y:\Sam\Apurva-07-20-2022\puck2\ML_20220720_17_SJD_0_LaB6-1min.raw)
_FILEVERSION = 3
_SAMPLE = ML_20220720_17_SJD_0_LaB6-1mi
_+SAMPLE =
_SITE = USA
_USER = Administrator
_GONIOMETER_CODE = 20
; Goniometer : D8 theta/2theta, stage : Unknown
_ATTACHMENTS_CODE = 0
_GONIOMETER_RADIUS = 200.5
_FIXED_DIVSLIT = 0.6
_FIXED_SAMPLESLIT = 0
_SOLLER_SLITS = 2
_FIXED_DETSLIT = 9.55
_MONOCHROMATOR = 0
; Incident beam monochromator : None
_SOLLER_SLITS_2 = N
_THIN_FILM = N
_BETA_FILTER = Y
_FIXED_ANTISLIT = 5.89
_ANALYZER_CODE = 0
; Received beam analyzer : None
_DATEMEASURED = "25-Jul-2022 18:18:02"
_WL_UNIT = A
_WL1 = 1.5406
_WL2 = 1.54439
_WL3 = 1.39222
_WLRATIO = 0.5
_ANODE = Cu
_V4_INF_CREATOR = XRDWizard
_V4_INF_CREATOR_VERSION = V2.9.0.22
_V4_INF_WIZARD_VERSION = V2.9.0.22
_V4_INF_WIZARD_ADDINS = V2.9.0.22
_V4_INF_WIZARD_DOCTYPE = XRD
_V4_INF_OSUSER = McQueenLab
_V4_INF_USER = Administrator
_V4_INF_SITE = USA
_V4_INF_SAMPLEID = ML_20220720_17_SJD_0_LaB6-1mi

; Data for range 1
_DRIVE = COUPLED
_STEPTIME = 4.23
_STEPSIZE = 0.0185756
_STEPMODE = C
_START = 5
_THETA = 2.5
_2THETA = 5
_KHI = 0
_PHI = 0
_X = 0
_Y = 0
_Z = 0
_DETECTOR = 5
; Detector type : Unknown
_DETECTORSLIT = unkn
_AUX1 = 0
_AUX2 = 0
_AUX3 = 0
_TIMESTARTED = 15
_TEMP_RATE = -1
_TEMP_DELAY = -1
_KV = 40
_MA = 40
_RANGE_WL = 1.5406
_3DPLANE = 0
_V4_ADDITIONALDETECTOR = 257
_V4_PSD2THETA = 3.4387
_V4_PSDCHANNEL1 = 0
_V4_PSDAPERTURE = 12.68
_V4_PSDTYPE = 5
_V4_PSDFIXED = 0
_V4_COUNTERS_MASK = 4096
_V4_DRIVES_MASK = 0
_V4_ENCODERS_MASK = 0
_2THETACOUNTS = 1
; 2THETA  PSD
   5.0000        104
   5.1858         88
   5.3715         69
   5.5573         98
   5.7430         92
   5.9288         63
   6.1145         71
   6.3003         71
   6.4860         65
   6.6718         66
   6.8576         75
   7.0433         64
   7.2291         56
   7.4148         63
   7.6006         67
   7.7863         68
   7.9721         81
   8.1579         71
   8.3436         48
   8.5294         64
   8.7151         84
   8.9009         83
   9.0866         71
   9.2724         55
   9.4581         61
   9.6439         80
   9.8297         84
  10.0154         86
  10.2012         95
  10.3869         90
  10.5727        101
  10.7584         93
  10.9442         80
  11.1299         92
  11.3157         89
  11.5015         70
  11.6872         99
  11.8730        112
  12.0587         80
  12.2445         82
  12.4302         77
  12.6160         67
  12.8018         70
  12.9875         67
  13.1733         78
  13.3590         68
  13.5448         88
  13.7305         85
  13.9163         73
  14.1020         71
  14.2878         62
  14.4736         65
  14.6593         55
  14.8451         58
  15.0308         58
  15.2166         55
  15.4023         64
  15.5881         45
  15.7738         54
  15.9596         47
  16.1454         59
  16.3311         67
  16.5169         44
  16.7026         70
  16.8884         65
  17.0741         60
  17.2599         59
  17.4457         57
  17.6314         65
  17.8172         70
  18.0029         74
  18.1887         61
  18.3744         61
  18.5602         56
  18.7459         53
  18.9317         59
  19.1175         74
  19.3032         68
  19.4890         71
  19.6747         58
  19.8605         63
  20.0462         72
  20.2320         71
  20.4177         78
  20.6035         61
  20.7893         54
  20.9750         82
  21.1608         77
  21.3465        195
  21.5323         80
  21.7180         63
  21.9038         71
  22.0896         68
  22.2753         62
  22.4611         84
  22.6468         63
  22.8326         84
  23.0183         88
  23.2041         87
  23.3898         70
  23.5756         58
  23.7614         79
  23.9471         73
  24.1329         86
  24.3186         84
  24.5044         78
  24.6901         81
  24.8759         83
  25.0616         75
  25.2474         80
  25.4332         74
  25.6189         63
  25.8047         73
  25.9904         66
  26.1762         61
  26.3619         66
  26.5477         62
  26.7335         57
  26.9192         62
  27.1050         80
  27.2907         72
  27.4765         67
  27.6622         67
  27.8480         61
  28.0337         67
  28.2195         71
  28.4053         63
  28.5910         59
  28.7768         53
  28.9625         56
  29.1483         73
  29.3340         58
  29.5198         55
  29.7055         55
  29.8913         55
  30.0771         43
  30.2628         78
  30.4486         85
  30.6343         72
  30.8201         52
  31.0058         47
  31.1916         51
  31.3774         43
  31.5631         51
  31.7489         43
  31.9346         44
  32.1204         45
  32.3061         67
  32.4919         52
  32.6776         54
  32.8634         48
  33.0492         54
  33.2349         40
  33.4207         48
  33.6064         55
  33.7922         38
  33.9779         39
  34.1637         57
  34.3494         49
  34.5352         48
  34.7210         52
  34.9067         45
  35.0925         32
  35.2782         38
  35.4640         45
  35.6497         32
  35.8355         26
  36.0213         32
  36.2070         33
  36.3928         36
  36.5785         26
  36.7643         42
  36.9500         26
  37.1358         38
  37.3215         33
  37.5073         40
  37.6931         29
  37.8788         40
  38.0646         26
  38.2503         22
  38.4361         26
  38.6218         26
  38.8076         35
  38.9933         33
  39.1791         27
  39.3649         28
  39.5506         29
  39.7364         26
  39.9221         18
  40.1079         33
  40.2936         26
  40.4794         26
  40.6652         28
  40.8509         23
  41.0367         27
  41.2224         34
  41.4082         26
  41.5939         34
  41.7797         17
  41.9654         24
  42.1512         28
  42.3370         30
  42.5227         27
  42.7085         20
  42.8942         31
  43.0800         28
  43.2657         28
  43.4515         40
  43.6372         29
  43.8230         26
  44.0088         28
  44.1945         32
  44.3803         28
  44.5660         30
  44.7518         29
  44.9375         36
  45.1233         33
  45.3091         24
  45.4948         19
  45.6806         24
  45.8663         31
  46.0521         24
  46.2378         37
  46.4236         24
  46.6093         23
  46.7951         31
  46.9809         26
  47.1666         16
  47.3524         24
  47.5381         25
  47.7239         25
  47.9096         27
  48.0954         22
  48.2811         17
  48.4669         24
  48.6527         25
  48.8384         30
  49.0242         29
  49.2099         24
  49.3957         29
  49.5814         14
  49.7672         27
  49.9530         28
  50.1387         26
  50.3245         13
  50.5102         23
  50.6960         16
  50.8817         24
  51.0675         25
  51.2532         29
  51.4390         25
  51.6248         24
  51.8105         30
  51.9963         33
  52.1820         12
  52.3678         20
  52.5535         22
  52.7393         24
  52.9250         24
  53.1108         22
  53.2966         25
  53.4823         21
  53.6681         28
  53.8538         21
  54.0396         32
  54.2253         24
  54.4111         21
  54.5969         23
  54.7826         19
  54.9684         26
  55.1541         22
  55.3399         25
  55.5256         18
  55.7114         25
  55.8971         17
  56.0829         20
  56.2687         23
  56.4544         16
  56.6402         15
  56.8259         18
  57.0117         21
  57.1974         27
  57.3832         30
  57.5689         23
  57.7547         13
  57.9405         24
  58.1262         24
  58.3120         17
  58.4977         26
  58.6835         24
  58.8692         13
  59.0550         25
  59.2408         13
  59.4265         26
  59.6123         21
  59.7980         23
  59.9838         22
  60.0024         25

File: ML_20220720_18_SJD_4_LaB6-1min.uxd
; (content of file Y:\Sam\Apurva-07-20-2022\puck2\ML_20220720_18_SJD_0_LaB6-1min.raw)
_FILEVERSION = 3
_SAMPLE = ML_20220720_18_SJD_0_LaB6-1mi
_+SAMPLE =
_SITE = USA
_USER = Administrator
_GONIOMETER_CODE = 20
; Goniometer : D8 theta/2theta, stage : Unknown
_ATTACHMENTS_CODE = 0
_GONIOMETER_RADIUS = 200.5
_FIXED_DIVSLIT = 0.6
_FIXED_SAMPLESLIT = 0
_SOLLER_SLITS = 2
_FIXED_DETSLIT = 9.55
_MONOCHROMATOR = 0
; Incident beam monochromator : None
_SOLLER_SLITS_2 = N
_THIN_FILM = N
_BETA_FILTER = Y
_FIXED_ANTISLIT = 5.89
_ANALYZER_CODE = 0
; Received beam analyzer : None
_DATEMEASURED = "25-Jul-2022 18:19:54"
_WL_UNIT = A
_WL1 = 1.5406
_WL2 = 1.54439
_WL3 = 1.39222
_WLRATIO = 0.5
_ANODE = Cu
_V4_INF_CREATOR = XRDWizard
_V4_INF_CREATOR_VERSION = V2.9.0.22
_V4_INF_WIZARD_VERSION = V2.9.0.22
_V4_INF_WIZARD_ADDINS = V2.9.0.22
_V4_INF_WIZARD_DOCTYPE = XRD
_V4_INF_OSUSER = McQueenLab
_V4_INF_USER = Administrator
_V4_INF_SITE = USA
_V4_INF_SAMPLEID = ML_20220720_18_SJD_0_LaB6-1mi

; Data for range 1
_DRIVE = COUPLED
_STEPTIME = 4.23
_STEPSIZE = 0.0185756
_STEPMODE = C
_START = 5
_THETA = 2.5
_2THETA = 5
_KHI = 0
_PHI = 0
_X = 0
_Y = 0
_Z = 0
_DETECTOR = 5
; Detector type : Unknown
_DETECTORSLIT = unkn
_AUX1 = 0
_AUX2 = 0
_AUX3 = 0
_TIMESTARTED = 15
_TEMP_RATE = -1
_TEMP_DELAY = -1
_KV = 40
_MA = 40
_RANGE_WL = 1.5406
_3DPLANE = 0
_V4_ADDITIONALDETECTOR = 257
_V4_PSD2THETA = 3.4307
_V4_PSDCHANNEL1 = 0
_V4_PSDAPERTURE = 12.68
_V4_PSDTYPE = 5
_V4_PSDFIXED = 0
_V4_COUNTERS_MASK = 4096
_V4_DRIVES_MASK = 0
_V4_ENCODERS_MASK = 0
_2THETACOUNTS = 1
; 2THETA  PSD
   5.0000         89
   5.1858         83
   5.3715         93
   5.5573         89
   5.7430         63
   5.9288         68
   6.1145         72
   6.3003         72
   6.4860         70
   6.6718         75
   6.8576         54
   7.0433         55
   7.2291         55
   7.4148         67
   7.6006         76
   7.7863         60
   7.9721         64
   8.1579         71
   8.3436         70
   8.5294         86
   8.7151         79
   8.9009         77
   9.0866         85
   9.2724         77
   9.4581         91
   9.6439         76
   9.8297         74
  10.0154         67
  10.2012         68
  10.3869        105
  10.5727         82
  10.7584         98
  10.9442         83
  11.1299         81
  11.3157         87
  11.5015         87
  11.6872        103
  11.8730         92
  12.0587         81
  12.2445         80
  12.4302         67
  12.6160         84
  12.8018         88
  12.9875         70
  13.1733         61
  13.3590         70
  13.5448         77
  13.7305         67
  13.9163         67
  14.1020         79
  14.2878         74
  14.4736         67
  14.6593         53
  14.8451         54
  15.0308         64
  15.2166         64
  15.4023         65
  15.5881         53
  15.7738         72
  15.9596         55
  16.1454         69
  16.3311         64
  16.5169         64
  16.7026         44
  16.8884         62
  17.0741         56
  17.2599         51
  17.4457         60
  17.6314         73
  17.8172         64
  18.0029         60
  18.1887         52
  18.3744         53
  18.5602         60
  18.7459         66
  18.9317         79
  19.1175         70
  19.3032         59
  19.4890         63
  19.6747         73
  19.8605         59
  20.0462         66
  20.2320         77
  20.4177         71
  20.6035         63
  20.7893         77
  20.9750         88
  21.1608         95
  21.3465        195
  21.5323         68
  21.7180         61
  21.9038         64
  22.0896         83
  22.2753         55
  22.4611         80
  22.6468         63
  22.8326         73
  23.0183         76
  23.2041         81
  23.3898         88
  23.5756         77
  23.7614         82
  23.9471         97
  24.1329         77
  24.3186         94
  24.5044         82
  24.6901         64
  24.8759         73
  25.0616         73
  25.2474         83
  25.4332         51
  25.6189         82
  25.8047         68
  25.9904         60
  26.1762         76
  26.3619         76
  26.5477         79
  26.7335         73
  26.9192         72
  27.1050         60
  27.2907         68
  27.4765         69
  27.6622         53
  27.8480         83
  28.0337         72
  28.2195         48
  28.4053         50
  28.5910         54
  28.7768         78
  28.9625         54
  29.1483         65
  29.3340         61
  29.5198         71
  29.7055         64
  29.8913         51
  30.0771         58
  30.2628         58
  30.4486         93
  30.6343         58
  30.8201         53
  31.0058         52
  31.1916         53
  31.3774         51
  31.5631         34
  31.7489         48
  31.9346         43
  32.1204         54
  32.3061         61
  32.4919         50
  32.6776         42
  32.8634         37
  33.0492         47
  33.2349         44
  33.4207         52
  33.6064         43
  33.7922         43
  33.9779         38
  34.1637         46
  34.3494         48
  34.5352         28
  34.7210         61
  34.9067         42
  35.0925         31
  35.2782         31
  35.4640         41
  35.6497         51
  35.8355         39
  36.0213         37
  36.2070         47
  36.3928         35
  36.5785         32
  36.7643         28
  36.9500         27
  37.1358         29
  37.3215         49
  37.5073         52
  37.6931         26
  37.8788         33
  38.0646         41
  38.2503         27
  38.4361         34
  38.6218         44
  38.8076         26
  38.9933         40
  39.1791         33
  39.3649         24
  39.5506         41
  39.7364         22
  39.9221         32
  40.1079         27
  40.2936         41
  40.4794         36
  40.6652         25
  40.8509         28
  41.0367         43
  41.2224         32
  41.4082         25
  41.5939         24
  41.7797         28
  41.9654         24
  42.1512         34
  42.3370         28
  42.5227         21
  42.7085         24
  42.8942         24
  43.0800         32
  43.2657         34
  43.4515         34
  43.6372         24
  43.8230         26
  44.0088         28
  44.1945         17
  44.3803         24
  44.5660         23
  44.7518         25
  44.9375         27
  45.1233         22
  45.3091         21
  45.4948         27
  45.6806         23
  45.8663         24
  46.0521         24
  46.2378         17
  46.4236         29
  46.6093         16
  46.7951         27
  46.9809         22
  47.1666         31
  47.3524         17
  47.5381         33
  47.7239         18
  47.9096         26
  48.0954         29
  48.2811         28
  48.4669         26
  48.6527         23
  48.8384         18
  49.0242         29
  49.2099         24
  49.3957         26
  49.5814         20
  49.7672         27
  49.9530         19
  50.1387         25
  50.3245         27
  50.5102         21
  50.6960         28
  50.8817         19
  51.0675         18
  51.2532         25
  51.4390         22
  51.6248         30
  51.8105         31
  51.9963         34
  52.1820         17
  52.3678         20
  52.5535         11
  52.7393         24
  52.9250         18
  53.1108         24
  53.2966         16
  53.4823         28
  53.6681         16
  53.8538         20
  54.0396         21
  54.2253         24
  54.4111         20
  54.5969         24
  54.7826         17
  54.9684         21
  55.1541         18
  55.3399         25
  55.5256         18
  55.7114         28
  55.8971         23
  56.0829         21
  56.2687         30
  56.4544         18
  56.6402         24
  56.8259         21
  57.0117         20
  57.1974         22
  57.3832         19
  57.5689         30
  57.7547         22
  57.9405         19
  58.1262         22
  58.3120         15
  58.4977         23
  58.6835         27
  58.8692         22
  59.0550         17
  59.2408         20
  59.4265         17
  59.6123         14
  59.7980         22
  59.9838         23
  60.0024         19

File: ML_20220720_19_SJD_4_LaB6-1min.csv
;,2THETA,
5.0000,94
5.1858,94
5.3715,81
5.5573,71
5.7430,79
5.9288,85
6.1145,74
6.3003,72
6.4860,48
6.6718,77
6.8576,66
7.0433,66
7.2291,55
7.4148,67
7.6006,70
7.7863,56
7.9721,70
8.1579,64
8.3436,71
8.5294,65
8.7151,67
8.9009,77
9.0866,65
9.2724,77
9.4581,82
9.6439,76
9.8297,88
10.0154,79
10.2012,89
10.3869,89
10.5727,92
10.7584,81
10.9442,80
11.1299,74
11.3157,83
11.5015,95
11.6872,86
11.8730,95
12.0587,86
12.2445,90
12.4302,84
12.6160,91
12.8018,74
12.9875,67
13.1733,79
13.3590,66
13.5448,76
13.7305,57
13.9163,85
14.1020,68
14.2878,60
14.4736,62
14.6593,76
14.8451,53
15.0308,60
15.2166,54
15.4023,75
15.5881,71
15.7738,55
15.9596,67
16.1454,48
16.3311,68
16.5169,52
16.7026,55
16.8884,51
17.0741,60
17.2599,42
17.4457,51
17.6314,58
17.8172,81
18.0029,70
18.1887,60
18.3744,39
18.5602,59
18.7459,68
18.9317,67
19.1175,60
19.3032,78
19.4890,70
19.6747,65
19.8605,66
20.0462,68
20.2320,59
20.4177,55
20.6035,83
20.7893,70
20.9750,49
21.1608,91
21.3465,184
21.5323,81
21.7180,72
21.9038,63
22.0896,74
22.2753,66
22.4611,79
22.6468,76
22.8326,68
23.0183,64
23.2041,67
23.3898,76
23.5756,72
23.7614,72
23.9471,63
24.1329,79
24.3186,88
24.5044,68
24.6901,80
24.8759,73
25.0616,69
25.2474,65
25.4332,73
25.6189,63
25.8047,84
25.9904,77
26.1762,58
26.3619,64
26.5477,77
26.7335,59
26.9192,64
27.1050,77
27.2907,90
27.4765,65
27.6622,61
27.8480,56
28.0337,81
28.2195,57
28.4053,58
28.5910,74
28.7768,71
28.9625,50
29.1483,60
29.3340,49
29.5198,56
29.7055,54
29.8913,66
30.0771,52
30.2628,52
30.4486,99
30.6343,61
30.8201,74
31.0058,57
31.1916,56
31.3774,48
31.5631,54
31.7489,44
31.9346,51
32.1204,46
32.3061,46
32.4919,75
32.6776,50
32.8634,46
33.0492,46
33.2349,40
33.4207,49
33.6064,32
33.7922,37
33.9779,55
34.1637,29
34.3494,53
34.5352,42
34.7210,45
34.9067,34
35.0925,35
35.2782,41
35.4640,36
35.6497,49
35.8355,31
36.0213,35
36.2070,32
36.3928,42
36.5785,42
36.7643,30
36.9500,44
37.1358,42
37.3215,26
37.5073,44
37.6931,39
37.8788,29
38.0646,24
38.2503,33
38.4361,33
38.6218,29
38.8076,27
38.9933,32
39.1791,26
39.3649,24
39.5506,25
39.7364,30
39.9221,29
40.1079,31
40.2936,35
40.4794,28
40.6652,23
40.8509,26
41.0367,25
41.2224,27
41.4082,30
41.5939,26
41.7797,27
41.9654,31
42.1512,30
42.3370,31
42.5227,28
42.7085,26
42.8942,22
43.0800,30
43.2657,34
43.4515,25
43.6372,26
43.8230,31
44.0088,27
44.1945,20
44.3803,28
44.5660,27
44.7518,19
44.9375,26
45.1233,20
45.3091,27
45.4948,21
45.6806,20
45.8663,20
46.0521,19
46.2378,29
46.4236,24
46.6093,26
46.7951,21
46.9809,22
47.1666,19
47.3524,30
47.5381,18
47.7239,18
47.9096,16
48.0954,16
48.2811,20
48.4669,18
48.6527,20
48.8384,22
49.0242,30
49.2099,25
49.3957,22
49.5814,21
49.7672,23
49.9530,18
50.1387,23
50.3245,28
50.5102,21
50.6960,25
50.8817,26
51.0675,22
51.2532,26
51.4390,29
51.6248,23
51.8105,22
51.9963,32
52.1820,24
52.3678,21
52.5535,13
52.7393,28
52.9250,26
53.1108,23
53.2966,20
53.4823,22
53.6681,25
53.8538,28
54.0396,29
54.2253,19
54.4111,26
54.5969,24
54.7826,19
54.9684,23
55.1541,16
55.3399,23
55.5256,27
55.7114,20
55.8971,23
56.0829,16
56.2687,36
56.4544,13
56.6402,23
56.8259,20
57.0117,19
57.1974,22
57.3832,36
57.5689,16
57.7547,23
57.9405,22
58.1262,10
58.3120,19
58.4977,20
58.6835,15
58.8692,18
59.0550,23
59.2408,20
59.4265,25
59.6123,22
59.7980,14
59.9838,20
60.0024,24