Folder: xrd_clustering/notebooks/data/xrd_data (part 9)

File: ML_20220718_37_SJD_4_LaB6-2min.csv
;,2THETA,
5.0000,140
5.1858,115
5.3715,105
5.5573,112
5.7430,115
5.9288,78
6.1145,83
6.3003,95
6.4860,88
6.6718,86
6.8576,77
7.0433,66
7.2291,71
7.4148,77
7.6006,82
7.7863,88
7.9721,99
8.1579,108
8.3436,101
8.5294,116
8.7151,88
8.9009,104
9.0866,109
9.2724,104
9.4581,119
9.6439,109
9.8297,115
10.0154,103
10.2012,117
10.3869,128
10.5727,123
10.7584,107
10.9442,119
11.1299,112
11.3157,104
11.5015,123
11.6872,94
11.8730,139
12.0587,119
12.2445,114
12.4302,103
12.6160,90
12.8018,107
12.9875,98
13.1733,83
13.3590,97
13.5448,91
13.7305,83
13.9163,81
14.1020,94
14.2878,101
14.4736,89
14.6593,92
14.8451,78
15.0308,67
15.2166,86
15.4023,90
15.5881,67
15.7738,78
15.9596,72
16.1454,91
16.3311,71
16.5169,64
16.7026,95
16.8884,83
17.0741,75
17.2599,82
17.4457,65
17.6314,77
17.8172,74
18.0029,94
18.1887,77
18.3744,64
18.5602,65
18.7459,80
18.9317,84
19.1175,88
19.3032,93
19.4890,82
19.6747,100
19.8605,72
20.0462,80
20.2320,87
20.4177,72
20.6035,98
20.7893,119
20.9750,98
21.1608,117
21.3465,227
21.5323,117
21.7180,85
21.9038,97
22.0896,92
22.2753,86
22.4611,84
22.6468,82
22.8326,100
23.0183,105
23.2041,104
23.3898,105
23.5756,126
23.7614,98
23.9471,99
24.1329,102
24.3186,108
24.5044,106
24.6901,112
24.8759,80
25.0616,88
25.2474,101
25.4332,92
25.6189,90
25.8047,95
25.9904,98
26.1762,94
26.3619,80
26.5477,100
26.7335,86
26.9192,87
27.1050,86
27.2907,104
27.4765,89
27.6622,71
27.8480,82
28.0337,77
28.2195,104
28.4053,76
28.5910,70
28.7768,85
28.9625,78
29.1483,80
29.3340,65
29.5198,83
29.7055,87
29.8913,70
30.0771,78
30.2628,83
30.4486,108
30.6343,86
30.8201,73
31.0058,75
31.1916,55
31.3774,71
31.5631,60
31.7489,77
31.9346,79
32.1204,58
32.3061,67
32.4919,76
32.6776,60
32.8634,60
33.0492,66
33.2349,63
33.4207,56
33.6064,63
33.7922,47
33.9779,58
34.1637,65
34.3494,69
34.5352,55
34.7210,57
34.9067,64
35.0925,60
35.2782,36
35.4640,48
35.6497,46
35.8355,47
36.0213,61
36.2070,62
36.3928,51
36.5785,44
36.7643,50
36.9500,41
37.1358,41
37.3215,50
37.5073,49
37.6931,47
37.8788,46
38.0646,44
38.2503,41
38.4361,41
38.6218,45
38.8076,44
38.9933,38
39.1791,34
39.3649,39
39.5506,36
39.7364,33
39.9221,32
40.1079,35
40.2936,38
40.4794,42
40.6652,46
40.8509,31
41.0367,38
41.2224,37
41.4082,32
41.5939,31
41.7797,37
41.9654,31
42.1512,41
42.3370,35
42.5227,41
42.7085,33
42.8942,37
43.0800,41
43.2657,39
43.4515,45
43.6372,39
43.8230,36
44.0088,26
44.1945,36
44.3803,35
44.5660,54
44.7518,32
44.9375,32
45.1233,34
45.3091,26
45.4948,33
45.6806,30
45.8663,28
46.0521,30
46.2378,33
46.4236,26
46.6093,25
46.7951,25
46.9809,28
47.1666,23
47.3524,27
47.5381,26
47.7239,31
47.9096,32
48.0954,31
48.2811,26
48.4669,26
48.6527,30
48.8384,31
49.0242,40
49.2099,31
49.3957,22
49.5814,27
49.7672,25
49.9530,25
50.1387,28
50.3245,32
50.5102,32
50.6960,26
50.8817,24
51.0675,23
51.2532,17
51.4390,42
51.6248,26
51.8105,33
51.9963,27
52.1820,34
52.3678,28
52.5535,31
52.7393,28
52.9250,28
53.1108,28
53.2966,35
53.4823,24
53.6681,24
53.8538,37
54.0396,21
54.2253,24
54.4111,26
54.5969,15
54.7826,21
54.9684,26
55.1541,21
55.3399,21
55.5256,21
55.7114,30
55.8971,31
56.0829,29
56.2687,34
56.4544,35
56.6402,32
56.8259,36
57.0117,31
57.1974,21
57.3832,24
57.5689,39
57.7547,30
57.9405,29
58.1262,26
58.3120,28
58.4977,23
58.6835,26
58.8692,34
59.0550,29
59.2408,25
59.4265,27
59.6123,30
59.7980,23
59.9838,21
60.0024,36

File: ML_20220718_38_SJD_4_LaB6-2min.csv
;,2THETA,
5.0000,124
5.1858,122
5.3715,110
5.5573,101
5.7430,104
5.9288,102
6.1145,79
6.3003,94
6.4860,92
6.6718,89
6.8576,77
7.0433,76
7.2291,75
7.4148,76
7.6006,84
7.7863,94
7.9721,88
8.1579,94
8.3436,108
8.5294,92
8.7151,91
8.9009,99
9.0866,100
9.2724,102
9.4581,99
9.6439,107
9.8297,115
10.0154,113
10.2012,112
10.3869,130
10.5727,108
10.7584,129
10.9442,114
11.1299,112
11.3157,106
11.5015,118
11.6872,128
11.8730,122
12.0587,112
12.2445,105
12.4302,95
12.6160,92
12.8018,90
12.9875,86
13.1733,95
13.3590,89
13.5448,97
13.7305,80
13.9163,106
14.1020,93
14.2878,80
14.4736,87
14.6593,77
14.8451,88
15.0308,59
15.2166,71
15.4023,76
15.5881,92
15.7738,97
15.9596,80
16.1454,72
16.3311,90
16.5169,72
16.7026,85
16.8884,96
17.0741,80
17.2599,87
17.4457,92
17.6314,72
17.8172,70
18.0029,88
18.1887,67
18.3744,85
18.5602,88
18.7459,84
18.9317,78
19.1175,86
19.3032,91
19.4890,71
19.6747,80
19.8605,84
20.0462,73
20.2320,82
20.4177,100
20.6035,80
20.7893,91
20.9750,101
21.1608,128
21.3465,261
21.5323,102
21.7180,105
21.9038,84
22.0896,109
22.2753,109
22.4611,99
22.6468,106
22.8326,97
23.0183,86
23.2041,103
23.3898,108
23.5756,80
23.7614,105
23.9471,102
24.1329,99
24.3186,111
24.5044,103
24.6901,92
24.8759,109
25.0616,99
25.2474,105
25.4332,96
25.6189,93
25.8047,90
25.9904,103
26.1762,79
26.3619,83
26.5477,89
26.7335,85
26.9192,80
27.1050,91
27.2907,103
27.4765,103
27.6622,69
27.8480,110
28.0337,72
28.2195,78
28.4053,80
28.5910,77
28.7768,76
28.9625,77
29.1483,80
29.3340,78
29.5198,83
29.7055,83
29.8913,75
30.0771,79
30.2628,77
30.4486,113
30.6343,65
30.8201,65
31.0058,66
31.1916,92
31.3774,72
31.5631,69
31.7489,74
31.9346,59
32.1204,63
32.3061,57
32.4919,80
32.6776,77
32.8634,66
33.0492,52
33.2349,71
33.4207,64
33.6064,55
33.7922,47
33.9779,52
34.1637,53
34.3494,61
34.5352,54
34.7210,68
34.9067,59
35.0925,47
35.2782,52
35.4640,56
35.6497,47
35.8355,48
36.0213,56
36.2070,49
36.3928,46
36.5785,48
36.7643,42
36.9500,32
37.1358,45
37.3215,50
37.5073,54
37.6931,43
37.8788,48
38.0646,43
38.2503,40
38.4361,31
38.6218,34
38.8076,57
38.9933,37
39.1791,45
39.3649,37
39.5506,33
39.7364,41
39.9221,33
40.1079,40
40.2936,35
40.4794,35
40.6652,24
40.8509,42
41.0367,42
41.2224,28
41.4082,34
41.5939,35
41.7797,31
41.9654,32
42.1512,41
42.3370,40
42.5227,38
42.7085,35
42.8942,39
43.0800,42
43.2657,34
43.4515,49
43.6372,47
43.8230,40
44.0088,38
44.1945,31
44.3803,35
44.5660,48
44.7518,24
44.9375,27
45.1233,36
45.3091,32
45.4948,42
45.6806,32
45.8663,31
46.0521,22
46.2378,34
46.4236,42
46.6093,26
46.7951,34
46.9809,36
47.1666,29
47.3524,28
47.5381,32
47.7239,35
47.9096,32
48.0954,29
48.2811,28
48.4669,36
48.6527,34
48.8384,27
49.0242,34
49.2099,29
49.3957,25
49.5814,24
49.7672,22
49.9530,29
50.1387,24
50.3245,28
50.5102,25
50.6960,33
50.8817,27
51.0675,23
51.2532,30
51.4390,24
51.6248,28
51.8105,30
51.9963,27
52.1820,20
52.3678,21
52.5535,30
52.7393,29
52.9250,34
53.1108,23
53.2966,20
53.4823,25
53.6681,38
53.8538,32
54.0396,40
54.2253,34
54.4111,30
54.5969,30
54.7826,20
54.9684,22
55.1541,30
55.3399,22
55.5256,32
55.7114,21
55.8971,24
56.0829,29
56.2687,27
56.4544,30
56.6402,26
56.8259,18
57.0117,27
57.1974,19
57.3832,21
57.5689,24
57.7547,37
57.9405,22
58.1262,25
58.3120,19
58.4977,25
58.6835,36
58.8692,24
59.0550,26
59.2408,22
59.4265,27
59.6123,10
59.7980,23
59.9838,23
60.0024,24

File: ML_20220718_39_SJD_4_LaB6-2min.uxd
; (content of file Y:\Sam\Apurva-07-20-2022\puck4\ML_20220718_39_SJD_0_LaB6-2min.raw)
_FILEVERSION = 3
_SAMPLE = ML_20220718_39_SJD_0_LaB6-2min
_+SAMPLE =
_SITE = USA
_USER = Administrator
_GONIOMETER_CODE = 20
; Goniometer : D8 theta/2theta, stage : Unknown
_ATTACHMENTS_CODE = 0
_GONIOMETER_RADIUS = 200.5
_FIXED_DIVSLIT = 0.6
_FIXED_SAMPLESLIT = 0
_SOLLER_SLITS = 2
_FIXED_DETSLIT = 9.55
_MONOCHROMATOR = 0
; Incident beam monochromator : None
_SOLLER_SLITS_2 = N
_THIN_FILM = N
_BETA_FILTER = Y
_FIXED_ANTISLIT = 5.89
_ANALYZER_CODE = 0
; Received beam analyzer : None
_DATEMEASURED = "26-Jul-2022 08:52:05"
_WL_UNIT = A
_WL1 = 1.5406
_WL2 = 1.54439
_WL3 = 1.39222
_WLRATIO = 0.5
_ANODE = Cu
_V4_INF_CREATOR = XRDWizard
_V4_INF_CREATOR_VERSION = V2.9.0.22
_V4_INF_WIZARD_VERSION = V2.9.0.22
_V4_INF_WIZARD_ADDINS = V2.9.0.22
_V4_INF_WIZARD_DOCTYPE = XRD
_V4_INF_OSUSER = McQueenLab
_V4_INF_USER = Administrator
_V4_INF_SITE = USA
_V4_INF_SAMPLEID = ML_20220718_39_SJD_0_LaB6-2min

; Data for range 1
_DRIVE = COUPLED
_STEPTIME = 5.64
_STEPSIZE = 0.0185756
_STEPMODE = C
_START = 5
_THETA = 2.5
_2THETA = 5
_KHI = 0
_PHI = 0
_X = 0
_Y = 0
_Z = 0
_DETECTOR = 5
; Detector type : Unknown
_DETECTORSLIT = unkn
_AUX1 = 0
_AUX2 = 0
_AUX3 = 0
_TIMESTARTED = 16
_TEMP_RATE = -1
_TEMP_DELAY = -1
_KV = 40
_MA = 40
_RANGE_WL = 1.5406
_3DPLANE = 0
_V4_ADDITIONALDETECTOR = 257
_V4_PSD2THETA = 3.3714
_V4_PSDCHANNEL1 = 0
_V4_PSDAPERTURE = 12.68
_V4_PSDTYPE = 5
_V4_PSDFIXED = 0
_V4_COUNTERS_MASK = 4096
_V4_DRIVES_MASK = 0
_V4_ENCODERS_MASK = 0
_2THETACOUNTS = 1
; 2THETA  PSD
   5.0000        124
   5.1858        141
   5.3715        128
   5.5573        123
   5.7430        123
   5.9288        102
   6.1145         94
   6.3003        100
   6.4860         92
   6.6718         80
   6.8576         79
   7.0433         76
   7.2291         77
   7.4148         81
   7.6006         78
   7.7863         76
   7.9721         93
   8.1579         78
   8.3436         94
   8.5294         87
   8.7151        101
   8.9009         98
   9.0866         87
   9.2724        112
   9.4581        119
   9.6439        132
   9.8297        111
  10.0154        105
  10.2012        120
  10.3869        132
  10.5727        114
  10.7584        134
  10.9442        129
  11.1299        143
  11.3157        106
  11.5015        118
  11.6872        116
  11.8730        128
  12.0587        107
  12.2445        100
  12.4302        133
  12.6160        116
  12.8018        102
  12.9875        113
  13.1733        109
  13.3590         96
  13.5448        105
  13.7305         83
  13.9163        104
  14.1020         89
  14.2878         91
  14.4736         85
  14.6593         68
  14.8451         87
  15.0308         87
  15.2166         90
  15.4023         94
  15.5881         82
  15.7738         90
  15.9596         90
  16.1454         81
  16.3311         75
  16.5169         84
  16.7026         87
  16.8884         82
  17.0741         75
  17.2599         84
  17.4457         80
  17.6314         69
  17.8172         87
  18.0029         74
  18.1887         65
  18.3744         95
  18.5602         99
  18.7459         76
  18.9317         85
  19.1175         79
  19.3032         88
  19.4890         84
  19.6747         77
  19.8605         92
  20.0462         86
  20.2320         86
  20.4177         75
  20.6035         78
  20.7893         92
  20.9750        108
  21.1608        116
  21.3465        241
  21.5323         84
  21.7180        110
  21.9038         88
  22.0896        113
  22.2753         97
  22.4611         92
  22.6468         92
  22.8326         88
  23.0183         92
  23.2041         95
  23.3898         91
  23.5756         95
  23.7614         87
  23.9471        111
  24.1329        102
  24.3186        107
  24.5044        102
  24.6901         91
  24.8759         85
  25.0616        116
  25.2474        102
  25.4332         86
  25.6189        117
  25.8047         83
  25.9904         99
  26.1762         85
  26.3619        103
  26.5477        115
  26.7335         77
  26.9192         88
  27.1050         85
  27.2907         75
  27.4765         80
  27.6622         78
  27.8480         98
  28.0337         72
  28.2195         85
  28.4053         72
  28.5910         95
  28.7768         88
  28.9625         77
  29.1483         76
  29.3340         92
  29.5198         85
  29.7055         83
  29.8913         76
  30.0771         85
  30.2628         78
  30.4486        117
  30.6343         77
  30.8201         71
  31.0058         61
  31.1916         61
  31.3774         67
  31.5631         58
  31.7489         67
  31.9346         64
  32.1204         65
  32.3061         69
  32.4919         90
  32.6776         55
  32.8634         67
  33.0492         62
  33.2349         52
  33.4207         58
  33.6064         54
  33.7922         69
  33.9779         57
  34.1637         60
  34.3494         46
  34.5352         65
  34.7210         74
  34.9067         64
  35.0925         60
  35.2782         51
  35.4640         47
  35.6497         41
  35.8355         50
  36.0213         47
  36.2070         43
  36.3928         39
  36.5785         43
  36.7643         40
  36.9500         35
  37.1358         37
  37.3215         51
  37.5073         61
  37.6931         35
  37.8788         45
  38.0646         41
  38.2503         37
  38.4361         49
  38.6218         41
  38.8076         34
  38.9933         41
  39.1791         33
  39.3649         36
  39.5506         39
  39.7364         40
  39.9221         29
  40.1079         32
  40.2936         36
  40.4794         28
  40.6652         37
  40.8509         37
  41.0367         52
  41.2224         43
  41.4082         32
  41.5939         34
  41.7797         28
  41.9654         44
  42.1512         49
  42.3370         27
  42.5227         39
  42.7085         35
  42.8942         40
  43.0800         27
  43.2657         42
  43.4515         44
  43.6372         44
  43.8230         37
  44.0088         36
  44.1945         40
  44.3803         44
  44.5660         42
  44.7518         36
  44.9375         36
  45.1233         34
  45.3091         37
  45.4948         31
  45.6806         34
  45.8663         21
  46.0521         21
  46.2378         40
  46.4236         36
  46.6093         28
  46.7951         21
  46.9809         40
  47.1666         38
  47.3524         25
  47.5381         37
  47.7239         36
  47.9096         36
  48.0954         27
  48.2811         36
  48.4669         25
  48.6527         31
  48.8384         27
  49.0242         37
  49.2099         44
  49.3957         35
  49.5814         37
  49.7672         26
  49.9530         21
  50.1387         29
  50.3245         22
  50.5102         32
  50.6960         22
  50.8817         34
  51.0675         29
  51.2532         29
  51.4390         43
  51.6248         20
  51.8105         31
  51.9963         25
  52.1820         27
  52.3678         27
  52.5535         31
  52.7393         37
  52.9250         30
  53.1108         23
  53.2966         22
  53.4823         25
  53.6681         33
  53.8538         31
  54.0396         24
  54.2253         37
  54.4111         29
  54.5969         25
  54.7826         35
  54.9684         28
  55.1541         24
  55.3399         24
  55.5256         26
  55.7114         26
  55.8971         20
  56.0829         29
  56.2687         30
  56.4544         25
  56.6402         24
  56.8259         15
  57.0117         31
  57.1974         29
  57.3832         33
  57.5689         33
  57.7547         31
  57.9405         27
  58.1262         30
  58.3120         33
  58.4977         28
  58.6835         22
  58.8692         18
  59.0550         27
  59.2408         32
  59.4265         31
  59.6123         28
  59.7980         20
  59.9838         24
  60.0024         24

File: ML_20220718_40_SJD_4_LaB6-1min.uxd
; (content of file Y:\Sam\Apurva-07-20-2022\puck4\ML_20220718_40_SJD_4_LaB6-1min.raw)
_FILEVERSION = 3
_SAMPLE = ML_20220718_40_SJD_4_LaB6-1min
_+SAMPLE =
_SITE = USA
_USER = Administrator
_GONIOMETER_CODE = 20
; Goniometer : D8 theta/2theta, stage : Unknown
_ATTACHMENTS_CODE = 0
_GONIOMETER_RADIUS = 200.5
_FIXED_DIVSLIT = 0.6
_FIXED_SAMPLESLIT = 0
_SOLLER_SLITS = 2
_FIXED_DETSLIT = 9.55
_MONOCHROMATOR = 0
; Incident beam monochromator : None
_SOLLER_SLITS_2 = N
_THIN_FILM = N
_BETA_FILTER = Y
_FIXED_ANTISLIT = 5.89
_ANALYZER_CODE = 0
; Received beam analyzer : None
_DATEMEASURED = "26-Jul-2022 10:30:39"
_WL_UNIT = A
_WL1 = 1.5406
_WL2 = 1.54439
_WL3 = 1.39222
_WLRATIO = 0.5
_ANODE = Cu
_V4_INF_CREATOR = XRDWizard
_V4_INF_CREATOR_VERSION = V2.9.0.22
_V4_INF_WIZARD_VERSION = V2.9.0.22
_V4_INF_WIZARD_ADDINS = V2.9.0.22
_V4_INF_WIZARD_DOCTYPE = XRD
_V4_INF_OSUSER = McQueenLab
_V4_INF_USER = Administrator
_V4_INF_SITE = USA
_V4_INF_SAMPLEID = ML_20220718_40_SJD_4_LaB6-1min

; Data for range 1
_DRIVE = COUPLED
_STEPTIME = 4.23
_STEPSIZE = 0.0185756
_STEPMODE = C
_START = 5
_THETA = 2.5
_2THETA = 5
_KHI = 0
_PHI = 0
_X = 0
_Y = 0
_Z = 0
_DETECTOR = 5
; Detector type : Unknown
_DETECTORSLIT = unkn
_AUX1 = 0
_AUX2 = 0
_AUX3 = 0
_TIMESTARTED = 15
_TEMP_RATE = -1
_TEMP_DELAY = -1
_KV = 40
_MA = 40
_RANGE_WL = 1.5406
_3DPLANE = 0
_V4_ADDITIONALDETECTOR = 257
_V4_PSD2THETA = 3.3738
_V4_PSDCHANNEL1 = 0
_V4_PSDAPERTURE = 12.68
_V4_PSDTYPE = 5
_V4_PSDFIXED = 0
_V4_COUNTERS_MASK = 4096
_V4_DRIVES_MASK = 0
_V4_ENCODERS_MASK = 0
_2THETACOUNTS = 1
; 2THETA  PSD
   5.0000        100
   5.1858         95
   5.3715         74
   5.5573         86
   5.7430         77
   5.9288         83
   6.1145         78
   6.3003         82
   6.4860         73
   6.6718         61
   6.8576         63
   7.0433         49
   7.2291         59
   7.4148         49
   7.6006         59
   7.7863         60
   7.9721         61
   8.1579         65
   8.3436         78
   8.5294         78
   8.7151         73
   8.9009         68
   9.0866         71
   9.2724         79
   9.4581         83
   9.6439         84
   9.8297         86
  10.0154         87
  10.2012        106
  10.3869         73
  10.5727         94
  10.7584         92
  10.9442         94
  11.1299         90
  11.3157         73
  11.5015         89
  11.6872         96
  11.8730         76
  12.0587         87
  12.2445         86
  12.4302         90
  12.6160         84
  12.8018         76
  12.9875         81
  13.1733         83
  13.3590         74
  13.5448         63
  13.7305         64
  13.9163         65
  14.1020         63
  14.2878         74
  14.4736         55
  14.6593         58
  14.8451         60
  15.0308         64
  15.2166         55
  15.4023         54
  15.5881         59
  15.7738         59
  15.9596         61
  16.1454         49
  16.3311         72
  16.5169         64
  16.7026         74
  16.8884         66
  17.0741         52
  17.2599         77
  17.4457         62
  17.6314         64
  17.8172         66
  18.0029         51
  18.1887         48
  18.3744         58
  18.5602         53
  18.7459         60
  18.9317         61
  19.1175         61
  19.3032         58
  19.4890         78
  19.6747         52
  19.8605         69
  20.0462         68
  20.2320         61
  20.4177         72
  20.6035         82
  20.7893         60
  20.9750         57
  21.1608         73
  21.3465        164
  21.5323         73
  21.7180         70
  21.9038         91
  22.0896         65
  22.2753         70
  22.4611         91
  22.6468         84
  22.8326         68
  23.0183         74
  23.2041         87
  23.3898         63
  23.5756         76
  23.7614         79
  23.9471         71
  24.1329         68
  24.3186         79
  24.5044         90
  24.6901         54
  24.8759         72
  25.0616         67
  25.2474         81
  25.4332         57
  25.6189         71
  25.8047         58
  25.9904         78
  26.1762         66
  26.3619         71
  26.5477         69
  26.7335         84
  26.9192         78
  27.1050         67
  27.2907         76
  27.4765         65
  27.6622         70
  27.8480         82
  28.0337         69
  28.2195         50
  28.4053         71
  28.5910         58
  28.7768         51
  28.9625         63
  29.1483         60
  29.3340         58
  29.5198         49
  29.7055         51
  29.8913         56
  30.0771         59
  30.2628         63
  30.4486        105
  30.6343         54
  30.8201         54
  31.0058         47
  31.1916         44
  31.3774         48
  31.5631         59
  31.7489         47
  31.9346         57
  32.1204         46
  32.3061         49
  32.4919         60
  32.6776         41
  32.8634         38
  33.0492         62
  33.2349         46
  33.4207         47
  33.6064         46
  33.7922         46
  33.9779         36
  34.1637         45
  34.3494         40
  34.5352         30
  34.7210         42
  34.9067         35
  35.0925         36
  35.2782         54
  35.4640         34
  35.6497         50
  35.8355         31
  36.0213         39
  36.2070         46
  36.3928         40
  36.5785         41
  36.7643         39
  36.9500         23
  37.1358         35
  37.3215         37
  37.5073         51
  37.6931         42
  37.8788         28
  38.0646         40
  38.2503         30
  38.4361         26
  38.6218         40
  38.8076         25
  38.9933         30
  39.1791         35
  39.3649         36
  39.5506         25
  39.7364         28
  39.9221         24
  40.1079         33
  40.2936         36
  40.4794         31
  40.6652         25
  40.8509         28
  41.0367         21
  41.2224         26
  41.4082         22
  41.5939         28
  41.7797         17
  41.9654         35
  42.1512         26
  42.3370         34
  42.5227         35
  42.7085         26
  42.8942         28
  43.0800         22
  43.2657         32
  43.4515         41
  43.6372         31
  43.8230         25
  44.0088         26
  44.1945         29
  44.3803         35
  44.5660         36
  44.7518         28
  44.9375         16
  45.1233         16
  45.3091         25
  45.4948         18
  45.6806         27
  45.8663         27
  46.0521         23
  46.2378         21
  46.4236         26
  46.6093         36
  46.7951         28
  46.9809         26
  47.1666         23
  47.3524         23
  47.5381         19
  47.7239         23
  47.9096         32
  48.0954         24
  48.2811         23
  48.4669         29
  48.6527         23
  48.8384         20
  49.0242         22
  49.2099         22
  49.3957         28
  49.5814         26
  49.7672         30
  49.9530         28
  50.1387         28
  50.3245         29
  50.5102         18
  50.6960         19
  50.8817         18
  51.0675         23
  51.2532         16
  51.4390         23
  51.6248         22
  51.8105         25
  51.9963         17
  52.1820         28
  52.3678         20
  52.5535         27
  52.7393         23
  52.9250         28
  53.1108         26
  53.2966         14
  53.4823         20
  53.6681         17
  53.8538         20
  54.0396         24
  54.2253         26
  54.4111         18
  54.5969         17
  54.7826         26
  54.9684         27
  55.1541         22
  55.3399         20
  55.5256         21
  55.7114         25
  55.8971         25
  56.0829         17
  56.2687         21
  56.4544         22
  56.6402         13
  56.8259         17
  57.0117         20
  57.1974         20
  57.3832         13
  57.5689         14
  57.7547         14
  57.9405         22
  58.1262         23
  58.3120         16
  58.4977         22
  58.6835         19
  58.8692         17
  59.0550         25
  59.2408         16
  59.4265         19
  59.6123         24
  59.7980         17
  59.9838         22
  60.0024         24