Folder: xrd_clustering/notebooks/data/xrd_data (part 6)

File: ML_20220718_25_SJD_4_LaB6-2min.csv
;,2THETA,
5.0000,143
5.1858,107
5.3715,106
5.5573,125
5.7430,101
5.9288,91
6.1145,99
6.3003,94
6.4860,74
6.6718,97
6.8576,83
7.0433,93
7.2291,88
7.4148,84
7.6006,83
7.7863,97
7.9721,122
8.1579,79
8.3436,91
8.5294,103
8.7151,126
8.9009,101
9.0866,115
9.2724,95
9.4581,106
9.6439,108
9.8297,118
10.0154,124
10.2012,97
10.3869,117
10.5727,104
10.7584,142
10.9442,102
11.1299,101
11.3157,121
11.5015,112
11.6872,114
11.8730,121
12.0587,122
12.2445,108
12.4302,104
12.6160,111
12.8018,93
12.9875,120
13.1733,105
13.3590,95
13.5448,103
13.7305,116
13.9163,92
14.1020,100
14.2878,94
14.4736,97
14.6593,91
14.8451,79
15.0308,98
15.2166,73
15.4023,97
15.5881,90
15.7738,88
15.9596,88
16.1454,67
16.3311,87
16.5169,63
16.7026,100
16.8884,90
17.0741,90
17.2599,77
17.4457,86
17.6314,103
17.8172,78
18.0029,80
18.1887,92
18.3744,94
18.5602,82
18.7459,84
18.9317,83
19.1175,77
19.3032,90
19.4890,91
19.6747,77
19.8605,69
20.0462,80
20.2320,84
20.4177,83
20.6035,103
20.7893,79
20.9750,86
21.1608,96
21.3465,296
21.5323,103
21.7180,85
21.9038,108
22.0896,99
22.2753,85
22.4611,95
22.6468,107
22.8326,94
23.0183,99
23.2041,91
23.3898,111
23.5756,104
23.7614,106
23.9471,105
24.1329,92
24.3186,125
24.5044,100
24.6901,112
24.8759,103
25.0616,85
25.2474,107
25.4332,98
25.6189,81
25.8047,102
25.9904,110
26.1762,102
26.3619,104
26.5477,102
26.7335,101
26.9192,92
27.1050,112
27.2907,122
27.4765,95
27.6622,67
27.8480,83
28.0337,92
28.2195,68
28.4053,78
28.5910,64
28.7768,94
28.9625,73
29.1483,92
29.3340,88
29.5198,87
29.7055,82
29.8913,81
30.0771,76
30.2628,77
30.4486,135
30.6343,82
30.8201,60
31.0058,78
31.1916,75
31.3774,70
31.5631,80
31.7489,64
31.9346,51
32.1204,59
32.3061,62
32.4919,63
32.6776,60
32.8634,58
33.0492,73
33.2349,46
33.4207,60
33.6064,66
33.7922,67
33.9779,53
34.1637,48
34.3494,46
34.5352,52
34.7210,74
34.9067,53
35.0925,50
35.2782,45
35.4640,36
35.6497,49
35.8355,43
36.0213,33
36.2070,58
36.3928,52
36.5785,53
36.7643,41
36.9500,41
37.1358,59
37.3215,52
37.5073,63
37.6931,47
37.8788,34
38.0646,41
38.2503,55
38.4361,53
38.6218,44
38.8076,45
38.9933,40
39.1791,34
39.3649,33
39.5506,40
39.7364,45
39.9221,41
40.1079,37
40.2936,35
40.4794,38
40.6652,36
40.8509,35
41.0367,38
41.2224,36
41.4082,36
41.5939,34
41.7797,31
41.9654,34
42.1512,30
42.3370,30
42.5227,41
42.7085,37
42.8942,26
43.0800,32
43.2657,46
43.4515,41
43.6372,37
43.8230,23
44.0088,36
44.1945,36
44.3803,38
44.5660,32
44.7518,44
44.9375,38
45.1233,41
45.3091,37
45.4948,34
45.6806,30
45.8663,33
46.0521,38
46.2378,24
46.4236,46
46.6093,33
46.7951,44
46.9809,29
47.1666,36
47.3524,26
47.5381,30
47.7239,33
47.9096,30
48.0954,27
48.2811,27
48.4669,31
48.6527,28
48.8384,35
49.0242,48
49.2099,41
49.3957,39
49.5814,27
49.7672,38
49.9530,24
50.1387,40
50.3245,34
50.5102,27
50.6960,29
50.8817,27
51.0675,30
51.2532,32
51.4390,29
51.6248,23
51.8105,30
51.9963,28
52.1820,29
52.3678,38
52.5535,30
52.7393,34
52.9250,33
53.1108,30
53.2966,30
53.4823,21
53.6681,27
53.8538,21
54.0396,36
54.2253,29
54.4111,27
54.5969,29
54.7826,17
54.9684,29
55.1541,24
55.3399,27
55.5256,34
55.7114,32
55.8971,28
56.0829,29
56.2687,26
56.4544,40
56.6402,32
56.8259,23
57.0117,26
57.1974,33
57.3832,24
57.5689,20
57.7547,23
57.9405,32
58.1262,27
58.3120,27
58.4977,33
58.6835,41
58.8692,30
59.0550,21
59.2408,32
59.4265,24
59.6123,26
59.7980,33
59.9838,32
60.0024,42

File: ML_20220718_26_SJD_4_LaB6-2min.csv
;,2THETA,
5.0000,137
5.1858,119
5.3715,110
5.5573,96
5.7430,91
5.9288,110
6.1145,93
6.3003,86
6.4860,109
6.6718,88
6.8576,86
7.0433,58
7.2291,75
7.4148,83
7.6006,81
7.7863,107
7.9721,99
8.1579,91
8.3436,99
8.5294,101
8.7151,115
8.9009,91
9.0866,112
9.2724,121
9.4581,94
9.6439,105
9.8297,131
10.0154,140
10.2012,118
10.3869,114
10.5727,136
10.7584,105
10.9442,103
11.1299,132
11.3157,116
11.5015,102
11.6872,109
11.8730,91
12.0587,108
12.2445,103
12.4302,126
12.6160,98
12.8018,99
12.9875,115
13.1733,99
13.3590,111
13.5448,87
13.7305,102
13.9163,101
14.1020,86
14.2878,89
14.4736,92
14.6593,90
14.8451,90
15.0308,90
15.2166,93
15.4023,86
15.5881,73
15.7738,83
15.9596,86
16.1454,69
16.3311,88
16.5169,76
16.7026,92
16.8884,88
17.0741,60
17.2599,98
17.4457,77
17.6314,75
17.8172,79
18.0029,77
18.1887,93
18.3744,80
18.5602,71
18.7459,88
18.9317,86
19.1175,75
19.3032,88
19.4890,77
19.6747,85
19.8605,83
20.0462,79
20.2320,91
20.4177,87
20.6035,107
20.7893,89
20.9750,104
21.1608,112
21.3465,259
21.5323,107
21.7180,102
21.9038,96
22.0896,88
22.2753,115
22.4611,99
22.6468,99
22.8326,70
23.0183,95
23.2041,90
23.3898,96
23.5756,85
23.7614,107
23.9471,101
24.1329,106
24.3186,93
24.5044,106
24.6901,84
24.8759,89
25.0616,109
25.2474,108
25.4332,96
25.6189,87
25.8047,85
25.9904,111
26.1762,93
26.3619,107
26.5477,81
26.7335,77
26.9192,108
27.1050,86
27.2907,114
27.4765,89
27.6622,86
27.8480,97
28.0337,74
28.2195,78
28.4053,81
28.5910,66
28.7768,97
28.9625,104
29.1483,66
29.3340,70
29.5198,80
29.7055,69
29.8913,71
30.0771,83
30.2628,78
30.4486,115
30.6343,82
30.8201,63
31.0058,72
31.1916,73
31.3774,68
31.5631,71
31.7489,73
31.9346,74
32.1204,60
32.3061,75
32.4919,74
32.6776,76
32.8634,83
33.0492,60
33.2349,48
33.4207,67
33.6064,48
33.7922,49
33.9779,65
34.1637,50
34.3494,44
34.5352,61
34.7210,82
34.9067,74
35.0925,49
35.2782,52
35.4640,51
35.6497,43
35.8355,44
36.0213,58
36.2070,58
36.3928,36
36.5785,61
36.7643,44
36.9500,46
37.1358,63
37.3215,39
37.5073,49
37.6931,51
37.8788,44
38.0646,42
38.2503,41
38.4361,36
38.6218,34
38.8076,37
38.9933,41
39.1791,35
39.3649,35
39.5506,43
39.7364,37
39.9221,47
40.1079,38
40.2936,39
40.4794,41
40.6652,50
40.8509,36
41.0367,38
41.2224,38
41.4082,51
41.5939,39
41.7797,43
41.9654,34
42.1512,35
42.3370,28
42.5227,37
42.7085,38
42.8942,34
43.0800,47
43.2657,49
43.4515,29
43.6372,48
43.8230,34
44.0088,33
44.1945,41
44.3803,33
44.5660,34
44.7518,42
44.9375,34
45.1233,32
45.3091,42
45.4948,26
45.6806,31
45.8663,30
46.0521,33
46.2378,42
46.4236,31
46.6093,31
46.7951,30
46.9809,35
47.1666,31
47.3524,29
47.5381,25
47.7239,21
47.9096,31
48.0954,32
48.2811,29
48.4669,31
48.6527,33
48.8384,37
49.0242,41
49.2099,29
49.3957,36
49.5814,29
49.7672,23
49.9530,28
50.1387,23
50.3245,35
50.5102,29
50.6960,30
50.8817,24
51.0675,22
51.2532,35
51.4390,30
51.6248,32
51.8105,28
51.9963,39
52.1820,32
52.3678,30
52.5535,32
52.7393,32
52.9250,23
53.1108,24
53.2966,35
53.4823,20
53.6681,21
53.8538,27
54.0396,39
54.2253,30
54.4111,29
54.5969,24
54.7826,27
54.9684,22
55.1541,20
55.3399,28
55.5256,25
55.7114,33
55.8971,23
56.0829,23
56.2687,19
56.4544,26
56.6402,36
56.8259,30
57.0117,40
57.1974,34
57.3832,25
57.5689,25
57.7547,42
57.9405,29
58.1262,23
58.3120,17
58.4977,23
58.6835,28
58.8692,24
59.0550,30
59.2408,21
59.4265,30
59.6123,32
59.7980,28
59.9838,18
60.0024,28

File: ML_20220718_27_SJD_4_LaB6-2min.csv
;,2THETA,
5.0000,133
5.1858,122
5.3715,108
5.5573,107
5.7430,120
5.9288,120
6.1145,89
6.3003,88
6.4860,84
6.6718,88
6.8576,84
7.0433,85
7.2291,75
7.4148,89
7.6006,107
7.7863,82
7.9721,99
8.1579,107
8.3436,102
8.5294,98
8.7151,95
8.9009,112
9.0866,103
9.2724,109
9.4581,119
9.6439,119
9.8297,121
10.0154,133
10.2012,119
10.3869,129
10.5727,119
10.7584,96
10.9442,134
11.1299,121
11.3157,113
11.5015,100
11.6872,123
11.8730,120
12.0587,100
12.2445,98
12.4302,104
12.6160,107
12.8018,113
12.9875,108
13.1733,97
13.3590,94
13.5448,96
13.7305,102
13.9163,100
14.1020,93
14.2878,91
14.4736,86
14.6593,81
14.8451,83
15.0308,78
15.2166,75
15.4023,83
15.5881,80
15.7738,69
15.9596,85
16.1454,65
16.3311,83
16.5169,80
16.7026,92
16.8884,78
17.0741,91
17.2599,78
17.4457,88
17.6314,78
17.8172,83
18.0029,95
18.1887,70
18.3744,86
18.5602,86
18.7459,88
18.9317,80
19.1175,81
19.3032,82
19.4890,91
19.6747,99
19.8605,86
20.0462,91
20.2320,96
20.4177,99
20.6035,103
20.7893,90
20.9750,100
21.1608,103
21.3465,277
21.5323,92
21.7180,87
21.9038,95
22.0896,97
22.2753,102
22.4611,73
22.6468,100
22.8326,97
23.0183,98
23.2041,97
23.3898,94
23.5756,105
23.7614,116
23.9471,102
24.1329,107
24.3186,114
24.5044,85
24.6901,103
24.8759,100
25.0616,104
25.2474,88
25.4332,104
25.6189,95
25.8047,92
25.9904,90
26.1762,89
26.3619,113
26.5477,91
26.7335,110
26.9192,88
27.1050,90
27.2907,107
27.4765,93
27.6622,103
27.8480,79
28.0337,92
28.2195,90
28.4053,81
28.5910,78
28.7768,89
28.9625,68
29.1483,67
29.3340,68
29.5198,82
29.7055,101
29.8913,71
30.0771,75
30.2628,89
30.4486,121
30.6343,77
30.8201,67
31.0058,73
31.1916,74
31.3774,68
31.5631,68
31.7489,57
31.9346,57
32.1204,68
32.3061,52
32.4919,78
32.6776,65
32.8634,75
33.0492,62
33.2349,59
33.4207,61
33.6064,50
33.7922,45
33.9779,52
34.1637,63
34.3494,47
34.5352,58
34.7210,78
34.9067,65
35.0925,67
35.2782,54
35.4640,39
35.6497,48
35.8355,55
36.0213,37
36.2070,38
36.3928,50
36.5785,59
36.7643,45
36.9500,51
37.1358,44
37.3215,41
37.5073,54
37.6931,52
37.8788,53
38.0646,37
38.2503,41
38.4361,41
38.6218,47
38.8076,49
38.9933,43
39.1791,51
39.3649,46
39.5506,32
39.7364,39
39.9221,38
40.1079,24
40.2936,39
40.4794,31
40.6652,38
40.8509,40
41.0367,39
41.2224,41
41.4082,40
41.5939,30
41.7797,52
41.9654,32
42.1512,45
42.3370,32
42.5227,34
42.7085,35
42.8942,39
43.0800,34
43.2657,45
43.4515,56
43.6372,50
43.8230,32
44.0088,33
44.1945,32
44.3803,37
44.5660,44
44.7518,34
44.9375,45
45.1233,44
45.3091,26
45.4948,32
45.6806,32
45.8663,36
46.0521,31
46.2378,23
46.4236,26
46.6093,20
46.7951,39
46.9809,33
47.1666,28
47.3524,31
47.5381,34
47.7239,35
47.9096,32
48.0954,28
48.2811,32
48.4669,27
48.6527,31
48.8384,25
49.0242,37
49.2099,36
49.3957,33
49.5814,23
49.7672,29
49.9530,31
50.1387,43
50.3245,29
50.5102,35
50.6960,35
50.8817,29
51.0675,32
51.2532,32
51.4390,28
51.6248,35
51.8105,39
51.9963,34
52.1820,31
52.3678,35
52.5535,30
52.7393,23
52.9250,32
53.1108,30
53.2966,31
53.4823,24
53.6681,34
53.8538,34
54.0396,28
54.2253,28
54.4111,29
54.5969,26
54.7826,25
54.9684,34
55.1541,25
55.3399,36
55.5256,26
55.7114,21
55.8971,29
56.0829,28
56.2687,30
56.4544,31
56.6402,25
56.8259,20
57.0117,28
57.1974,25
57.3832,29
57.5689,29
57.7547,30
57.9405,32
58.1262,32
58.3120,21
58.4977,34
58.6835,28
58.8692,24
59.0550,36
59.2408,18
59.4265,27
59.6123,32
59.7980,19
59.9838,29
60.0024,30

File: ML_20220718_28_SJD_4_LaB6-2min.csv
;,2THETA,
5.0000,133
5.1858,132
5.3715,116
5.5573,127
5.7430,83
5.9288,124
6.1145,81
6.3003,98
6.4860,99
6.6718,85
6.8576,80
7.0433,75
7.2291,67
7.4148,89
7.6006,89
7.7863,84
7.9721,91
8.1579,98
8.3436,111
8.5294,101
8.7151,105
8.9009,98
9.0866,104
9.2724,97
9.4581,116
9.6439,90
9.8297,112
10.0154,125
10.2012,132
10.3869,101
10.5727,125
10.7584,116
10.9442,107
11.1299,103
11.3157,120
11.5015,114
11.6872,112
11.8730,109
12.0587,104
12.2445,102
12.4302,98
12.6160,119
12.8018,110
12.9875,102
13.1733,122
13.3590,119
13.5448,79
13.7305,100
13.9163,92
14.1020,93
14.2878,92
14.4736,92
14.6593,98
14.8451,78
15.0308,77
15.2166,80
15.4023,93
15.5881,70
15.7738,85
15.9596,90
16.1454,73
16.3311,86
16.5169,90
16.7026,96
16.8884,71
17.0741,90
17.2599,86
17.4457,71
17.6314,79
17.8172,71
18.0029,69
18.1887,73
18.3744,76
18.5602,86
18.7459,87
18.9317,85
19.1175,85
19.3032,99
19.4890,89
19.6747,83
19.8605,86
20.0462,98
20.2320,90
20.4177,80
20.6035,80
20.7893,109
20.9750,91
21.1608,116
21.3465,238
21.5323,99
21.7180,91
21.9038,107
22.0896,119
22.2753,107
22.4611,105
22.6468,84
22.8326,106
23.0183,112
23.2041,111
23.3898,93
23.5756,99
23.7614,101
23.9471,96
24.1329,102
24.3186,134
24.5044,114
24.6901,91
24.8759,115
25.0616,103
25.2474,90
25.4332,83
25.6189,93
25.8047,88
25.9904,92
26.1762,80
26.3619,99
26.5477,78
26.7335,78
26.9192,96
27.1050,94
27.2907,93
27.4765,97
27.6622,99
27.8480,99
28.0337,93
28.2195,74
28.4053,78
28.5910,69
28.7768,79
28.9625,88
29.1483,95
29.3340,101
29.5198,87
29.7055,63
29.8913,70
30.0771,78
30.2628,71
30.4486,114
30.6343,52
30.8201,61
31.0058,87
31.1916,78
31.3774,85
31.5631,78
31.7489,68
31.9346,51
32.1204,57
32.3061,81
32.4919,101
32.6776,64
32.8634,71
33.0492,63
33.2349,58
33.4207,70
33.6064,63
33.7922,51
33.9779,65
34.1637,49
34.3494,66
34.5352,64
34.7210,75
34.9067,55
35.0925,49
35.2782,54
35.4640,56
35.6497,46
35.8355,50
36.0213,48
36.2070,55
36.3928,39
36.5785,49
36.7643,45
36.9500,43
37.1358,38
37.3215,43
37.5073,54
37.6931,43
37.8788,38
38.0646,36
38.2503,44
38.4361,47
38.6218,35
38.8076,35
38.9933,49
39.1791,39
39.3649,35
39.5506,34
39.7364,46
39.9221,26
40.1079,40
40.2936,43
40.4794,43
40.6652,42
40.8509,52
41.0367,43
41.2224,33
41.4082,35
41.5939,36
41.7797,33
41.9654,42
42.1512,47
42.3370,38
42.5227,49
42.7085,28
42.8942,40
43.0800,39
43.2657,50
43.4515,47
43.6372,47
43.8230,36
44.0088,41
44.1945,38
44.3803,42
44.5660,41
44.7518,37
44.9375,32
45.1233,28
45.3091,37
45.4948,42
45.6806,36
45.8663,39
46.0521,25
46.2378,24
46.4236,33
46.6093,33
46.7951,37
46.9809,29
47.1666,34
47.3524,27
47.5381,26
47.7239,26
47.9096,22
48.0954,37
48.2811,24
48.4669,34
48.6527,34
48.8384,33
49.0242,34
49.2099,34
49.3957,27
49.5814,29
49.7672,35
49.9530,35
50.1387,31
50.3245,35
50.5102,28
50.6960,36
50.8817,31
51.0675,20
51.2532,36
51.4390,35
51.6248,33
51.8105,44
51.9963,34
52.1820,29
52.3678,28
52.5535,30
52.7393,32
52.9250,25
53.1108,34
53.2966,27
53.4823,32
53.6681,24
53.8538,29
54.0396,29
54.2253,27
54.4111,28
54.5969,24
54.7826,37
54.9684,23
55.1541,31
55.3399,33
55.5256,31
55.7114,33
55.8971,32
56.0829,24
56.2687,30
56.4544,28
56.6402,35
56.8259,30
57.0117,26
57.1974,34
57.3832,22
57.5689,23
57.7547,31
57.9405,19
58.1262,33
58.3120,24
58.4977,29
58.6835,30
58.8692,28
59.0550,26
59.2408,33
59.4265,30
59.6123,28
59.7980,26
59.9838,28
60.0024,26

File: ML_20220718_29_SJD_4_LaB6-2min.uxd
; (content of file Y:\Sam\Apurva-07-20-2022\puck4\ML_20220718_29_SJD_0_LaB6-2min.raw)
_FILEVERSION = 3
_SAMPLE = ML_20220718_29_SJD_0_LaB6-2min
_+SAMPLE =
_SITE = USA
_USER = Administrator
_GONIOMETER_CODE = 20
; Goniometer : D8 theta/2theta, stage : Unknown
_ATTACHMENTS_CODE = 0
_GONIOMETER_RADIUS = 200.5
_FIXED_DIVSLIT = 0.6
_FIXED_SAMPLESLIT = 0
_SOLLER_SLITS = 2
_FIXED_DETSLIT = 9.55
_MONOCHROMATOR = 0
; Incident beam monochromator : None
_SOLLER_SLITS_2 = N
_THIN_FILM = N
_BETA_FILTER = Y
_FIXED_ANTISLIT = 5.89
_ANALYZER_CODE = 0
; Received beam analyzer : None
_DATEMEASURED = "26-Jul-2022 09:16:00"
_WL_UNIT = A
_WL1 = 1.5406
_WL2 = 1.54439
_WL3 = 1.39222
_WLRATIO = 0.5
_ANODE = Cu
_V4_INF_CREATOR = XRDWizard
_V4_INF_CREATOR_VERSION = V2.9.0.22
_V4_INF_WIZARD_VERSION = V2.9.0.22
_V4_INF_WIZARD_ADDINS = V2.9.0.22
_V4_INF_WIZARD_DOCTYPE = XRD
_V4_INF_OSUSER = McQueenLab
_V4_INF_USER = Administrator
_V4_INF_SITE = USA
_V4_INF_SAMPLEID = ML_20220718_29_SJD_0_LaB6-2min

; Data for range 1
_DRIVE = COUPLED
_STEPTIME = 5.64
_STEPSIZE = 0.0185756
_STEPMODE = C
_START = 5
_THETA = 2.5
_2THETA = 5
_KHI = 0
_PHI = 0
_X = 0
_Y = 0
_Z = 0
_DETECTOR = 5
; Detector type : Unknown
_DETECTORSLIT = unkn
_AUX1 = 0
_AUX2 = 0
_AUX3 = 0
_TIMESTARTED = 14
_TEMP_RATE = -1
_TEMP_DELAY = -1
_KV = 40
_MA = 40
_RANGE_WL = 1.5406
_3DPLANE = 0
_V4_ADDITIONALDETECTOR = 257
_V4_PSD2THETA = 3.4232
_V4_PSDCHANNEL1 = 0
_V4_PSDAPERTURE = 12.68
_V4_PSDTYPE = 5
_V4_PSDFIXED = 0
_V4_COUNTERS_MASK = 4096
_V4_DRIVES_MASK = 0
_V4_ENCODERS_MASK = 0
_2THETACOUNTS = 1
; 2THETA  PSD
   5.0000        141
   5.1858        122
   5.3715        131
   5.5573        100
   5.7430        115
   5.9288        117
   6.1145        111
   6.3003        105
   6.4860         86
   6.6718         87
   6.8576         67
   7.0433         94
   7.2291         69
   7.4148         93
   7.6006         90
   7.7863        101
   7.9721        102
   8.1579         97
   8.3436         99
   8.5294        103
   8.7151        121
   8.9009        120
   9.0866        125
   9.2724        114
   9.4581        125
   9.6439        119
   9.8297        114
  10.0154        116
  10.2012        116
  10.3869        115
  10.5727        116
  10.7584        108
  10.9442        121
  11.1299        115
  11.3157        128
  11.5015         93
  11.6872        101
  11.8730        107
  12.0587        123
  12.2445        128
  12.4302        110
  12.6160         89
  12.8018         96
  12.9875         93
  13.1733         92
  13.3590         98
  13.5448        103
  13.7305        104
  13.9163         85
  14.1020         89
  14.2878         72
  14.4736         91
  14.6593         71
  14.8451         89
  15.0308         82
  15.2166         84
  15.4023         85
  15.5881         92
  15.7738         77
  15.9596         89
  16.1454         88
  16.3311         80
  16.5169         87
  16.7026         80
  16.8884         86
  17.0741         80
  17.2599         82
  17.4457         91
  17.6314         91
  17.8172         76
  18.0029         73
  18.1887         74
  18.3744         92
  18.5602         92
  18.7459         96
  18.9317         54
  19.1175         89
  19.3032         79
  19.4890         94
  19.6747         77
  19.8605         93
  20.0462         84
  20.2320         88
  20.4177         87
  20.6035         66
  20.7893         94
  20.9750        113
  21.1608        104
  21.3465        248
  21.5323         79
  21.7180        102
  21.9038        109
  22.0896        105
  22.2753        107
  22.4611        110
  22.6468         93
  22.8326         92
  23.0183         97
  23.2041         92
  23.3898        101
  23.5756         99
  23.7614         98
  23.9471        113
  24.1329        109
  24.3186        120
  24.5044         94
  24.6901         96
  24.8759        100
  25.0616         91
  25.2474         98
  25.4332         90
  25.6189         96
  25.8047         95
  25.9904        108
  26.1762        100
  26.3619         81
  26.5477        100
  26.7335         99
  26.9192         92
  27.1050         84
  27.2907        107
  27.4765         93
  27.6622         96
  27.8480         81
  28.0337        109
  28.2195         78
  28.4053         86
  28.5910         77
  28.7768         85
  28.9625         89
  29.1483         80
  29.3340         88
  29.5198         97
  29.7055         80
  29.8913         71
  30.0771         84
  30.2628         76
  30.4486        123
  30.6343         69
  30.8201         83
  31.0058         71
  31.1916         53
  31.3774         75
  31.5631         80
  31.7489         59
  31.9346         76
  32.1204         66
  32.3061         60
  32.4919         86
  32.6776         69
  32.8634         67
  33.0492         61
  33.2349         53
  33.4207         65
  33.6064         58
  33.7922         61
  33.9779         51
  34.1637         59
  34.3494         53
  34.5352         43
  34.7210         66
  34.9067         52
  35.0925         54
  35.2782         53
  35.4640         48
  35.6497         40
  35.8355         45
  36.0213         54
  36.2070         45
  36.3928         57
  36.5785         48
  36.7643         51
  36.9500         60
  37.1358         38
  37.3215         40
  37.5073         58
  37.6931         50
  37.8788         37
  38.0646         48
  38.2503         34
  38.4361         40
  38.6218         33
  38.8076         34
  38.9933         49
  39.1791         33
  39.3649         40
  39.5506         39
  39.7364         32
  39.9221         42
  40.1079         28
  40.2936         39
  40.4794         38
  40.6652         41
  40.8509         54
  41.0367         37
  41.2224         37
  41.4082         38
  41.5939         47
  41.7797         44
  41.9654         39
  42.1512         33
  42.3370         38
  42.5227         36
  42.7085         40
  42.8942         53
  43.0800         27
  43.2657         47
  43.4515         44
  43.6372         50
  43.8230         38
  44.0088         33
  44.1945         36
  44.3803         41
  44.5660         34
  44.7518         31
  44.9375         27
  45.1233         29
  45.3091         24
  45.4948         34
  45.6806         43
  45.8663         32
  46.0521         35
  46.2378         25
  46.4236         30
  46.6093         42
  46.7951         30
  46.9809         28
  47.1666         29
  47.3524         41
  47.5381         21
  47.7239         36
  47.9096         31
  48.0954         25
  48.2811         34
  48.4669         32
  48.6527         29
  48.8384         43
  49.0242         44
  49.2099         37
  49.3957         40
  49.5814         29
  49.7672         30
  49.9530         29
  50.1387         38
  50.3245         26
  50.5102         35
  50.6960         30
  50.8817         29
  51.0675         27
  51.2532         28
  51.4390         50
  51.6248         37
  51.8105         28
  51.9963         27
  52.1820         27
  52.3678         30
  52.5535         36
  52.7393         24
  52.9250         28
  53.1108         32
  53.2966         32
  53.4823         20
  53.6681         25
  53.8538         29
  54.0396         30
  54.2253         37
  54.4111         29
  54.5969         31
  54.7826         25
  54.9684         35
  55.1541         31
  55.3399         26
  55.5256         33
  55.7114         26
  55.8971         34
  56.0829         29
  56.2687         33
  56.4544         20
  56.6402         28
  56.8259         21
  57.0117         27
  57.1974         37
  57.3832         29
  57.5689         21
  57.7547         32
  57.9405         30
  58.1262         14
  58.3120         20
  58.4977         18
  58.6835         28
  58.8692         28
  59.0550         29
  59.2408         36
  59.4265         28
  59.6123         25
  59.7980         28
  59.9838         31
  60.0024         27

File: ML_20220718_30_SJD_4_LaB6-2min.csv
;,2THETA,
5.0000,152
5.1858,106
5.3715,104
5.5573,114
5.7430,107
5.9288,92
6.1145,107
6.3003,93
6.4860,77
6.6718,116
6.8576,94
7.0433,79
7.2291,79
7.4148,92
7.6006,98
7.7863,81
7.9721,86
8.1579,91
8.3436,94
8.5294,98
8.7151,121
8.9009,91
9.0866,116
9.2724,116
9.4581,106
9.6439,100
9.8297,113
10.0154,104
10.2012,111
10.3869,118
10.5727,133
10.7584,123
10.9442,112
11.1299,110
11.3157,102
11.5015,131
11.6872,109
11.8730,123
12.0587,131
12.2445,109
12.4302,99
12.6160,95
12.8018,106
12.9875,90
13.1733,96
13.3590,100
13.5448,91
13.7305,102
13.9163,91
14.1020,95
14.2878,79
14.4736,99
14.6593,79
14.8451,83
15.0308,79
15.2166,60
15.4023,75
15.5881,77
15.7738,83
15.9596,81
16.1454,74
16.3311,63
16.5169,87
16.7026,96
16.8884,81
17.0741,83
17.2599,85
17.4457,71
17.6314,82
17.8172,96
18.0029,80
18.1887,96
18.3744,78
18.5602,82
18.7459,81
18.9317,73
19.1175,88
19.3032,80
19.4890,73
19.6747,85
19.8605,92
20.0462,80
20.2320,98
20.4177,101
20.6035,108
20.7893,108
20.9750,92
21.1608,136
21.3465,217
21.5323,112
21.7180,92
21.9038,81
22.0896,100
22.2753,82
22.4611,81
22.6468,93
22.8326,105
23.0183,112
23.2041,79
23.3898,94
23.5756,113
23.7614,92
23.9471,90
24.1329,107
24.3186,97
24.5044,79
24.6901,105
24.8759,83
25.0616,102
25.2474,111
25.4332,89
25.6189,103
25.8047,97
25.9904,90
26.1762,85
26.3619,100
26.5477,87
26.7335,92
26.9192,91
27.1050,97
27.2907,96
27.4765,95
27.6622,98
27.8480,87
28.0337,85
28.2195,77
28.4053,89
28.5910,67
28.7768,73
28.9625,95
29.1483,86
29.3340,72
29.5198,85
29.7055,87
29.8913,74
30.0771,81
30.2628,82
30.4486,104
30.6343,85
30.8201,63
31.0058,88
31.1916,72
31.3774,73
31.5631,60
31.7489,72
31.9346,71
32.1204,63
32.3061,62
32.4919,59
32.6776,71
32.8634,57
33.0492,62
33.2349,57
33.4207,53
33.6064,61
33.7922,54
33.9779,57
34.1637,59
34.3494,51
34.5352,68
34.7210,66
34.9067,60
35.0925,56
35.2782,64
35.4640,46
35.6497,34
35.8355,48
36.0213,34
36.2070,51
36.3928,57
36.5785,49
36.7643,58
36.9500,54
37.1358,44
37.3215,52
37.5073,48
37.6931,40
37.8788,37
38.0646,40
38.2503,38
38.4361,36
38.6218,41
38.8076,32
38.9933,41
39.1791,39
39.3649,41
39.5506,41
39.7364,42
39.9221,30
40.1079,55
40.2936,38
40.4794,44
40.6652,38
40.8509,35
41.0367,39
41.2224,37
41.4082,37
41.5939,34
41.7797,30
41.9654,30
42.1512,48
42.3370,24
42.5227,48
42.7085,36
42.8942,36
43.0800,46
43.2657,44
43.4515,43
43.6372,31
43.8230,31
44.0088,48
44.1945,38
44.3803,39
44.5660,40
44.7518,39
44.9375,34
45.1233,35
45.3091,19
45.4948,38
45.6806,25
45.8663,44
46.0521,37
46.2378,37
46.4236,25
46.6093,32
46.7951,35
46.9809,34
47.1666,36
47.3524,37
47.5381,27
47.7239,28
47.9096,46
48.0954,31
48.2811,31
48.4669,33
48.6527,28
48.8384,30
49.0242,29
49.2099,47
49.3957,30
49.5814,29
49.7672,43
49.9530,31
50.1387,32
50.3245,28
50.5102,30
50.6960,29
50.8817,31
51.0675,26
51.2532,23
51.4390,38
51.6248,25
51.8105,39
51.9963,22
52.1820,34
52.3678,33
52.5535,28
52.7393,28
52.9250,23
53.1108,26
53.2966,23
53.4823,28
53.6681,19
53.8538,30
54.0396,28
54.2253,32
54.4111,27
54.5969,20
54.7826,29
54.9684,25
55.1541,28
55.3399,31
55.5256,37
55.7114,27
55.8971,29
56.0829,28
56.2687,45
56.4544,39
56.6402,26
56.8259,26
57.0117,33
57.1974,33
57.3832,22
57.5689,20
57.7547,20
57.9405,32
58.1262,25
58.3120,26
58.4977,24
58.6835,22
58.8692,24
59.0550,26
59.2408,23
59.4265,26
59.6123,19
59.7980,35
59.9838,31
60.0024,25