Folder: xrd_clustering/notebooks/data/xrd_data (part 19)

File: ML_20220718_52_SJD_4_LaB6-2min.uxd
; (content of file Y:\Sam\Apurva-07-20-2022\puck4\ML_20220718_52_SJD_4_LaB6-2min.raw)
_FILEVERSION = 3
_SAMPLE = ML_20220718_52_SJD_4_LaB6-2min
_+SAMPLE =
_SITE = USA
_USER = Administrator
_GONIOMETER_CODE = 20
; Goniometer : D8 theta/2theta, stage : Unknown
_ATTACHMENTS_CODE = 0
_GONIOMETER_RADIUS = 200.5
_FIXED_DIVSLIT = 0.6
_FIXED_SAMPLESLIT = 0
_SOLLER_SLITS = 2
_FIXED_DETSLIT = 9.55
_MONOCHROMATOR = 0
; Incident beam monochromator : None
_SOLLER_SLITS_2 = N
_THIN_FILM = N
_BETA_FILTER = Y
_FIXED_ANTISLIT = 5.89
_ANALYZER_CODE = 0
; Received beam analyzer : None
_DATEMEASURED = "26-Jul-2022 12:32:25"
_WL_UNIT = A
_WL1 = 1.5406
_WL2 = 1.54439
_WL3 = 1.39222
_WLRATIO = 0.5
_ANODE = Cu
_V4_INF_CREATOR = XRDWizard
_V4_INF_CREATOR_VERSION = V2.9.0.22
_V4_INF_WIZARD_VERSION = V2.9.0.22
_V4_INF_WIZARD_ADDINS = V2.9.0.22
_V4_INF_WIZARD_DOCTYPE = XRD
_V4_INF_OSUSER = McQueenLab
_V4_INF_USER = Administrator
_V4_INF_SITE = USA
_V4_INF_SAMPLEID = ML_20220718_52_SJD_4_LaB6-2min

; Data for range 1
_DRIVE = COUPLED
_STEPTIME = 5.64
_STEPSIZE = 0.0185756
_STEPMODE = C
_START = 5
_THETA = 2.5
_2THETA = 5
_KHI = 0
_PHI = 0
_X = 0
_Y = 0
_Z = 0
_DETECTOR = 5
; Detector type : Unknown
_DETECTORSLIT = unkn
_AUX1 = 0
_AUX2 = 0
_AUX3 = 0
_TIMESTARTED = 14
_TEMP_RATE = -1
_TEMP_DELAY = -1
_KV = 40
_MA = 40
_RANGE_WL = 1.5406
_3DPLANE = 0
_V4_ADDITIONALDETECTOR = 257
_V4_PSD2THETA = 3.4137
_V4_PSDCHANNEL1 = 0
_V4_PSDAPERTURE = 12.68
_V4_PSDTYPE = 5
_V4_PSDFIXED = 0
_V4_COUNTERS_MASK = 4096
_V4_DRIVES_MASK = 0
_V4_ENCODERS_MASK = 0
_2THETACOUNTS = 1
; 2THETA  PSD
   5.0000        140
   5.1858        137
   5.3715        100
   5.5573        100
   5.7430        106
   5.9288         99
   6.1145         76
   6.3003        113
   6.4860         95
   6.6718         76
   6.8576         79
   7.0433         80
   7.2291         67
   7.4148         67
   7.6006         88
   7.7863         77
   7.9721         88
   8.1579         89
   8.3436        108
   8.5294         95
   8.7151         84
   8.9009         90
   9.0866        108
   9.2724         99
   9.4581        109
   9.6439        118
   9.8297        122
  10.0154        105
  10.2012        123
  10.3869        101
  10.5727        100
  10.7584        118
  10.9442        132
  11.1299        121
  11.3157        106
  11.5015        123
  11.6872        124
  11.8730        116
  12.0587         97
  12.2445        123
  12.4302        107
  12.6160        128
  12.8018         97
  12.9875        115
  13.1733        108
  13.3590        102
  13.5448        113
  13.7305         92
  13.9163        107
  14.1020         89
  14.2878         95
  14.4736         80
  14.6593         87
  14.8451         86
  15.0308         77
  15.2166         87
  15.4023         82
  15.5881         90
  15.7738         80
  15.9596         75
  16.1454         88
  16.3311         90
  16.5169         90
  16.7026         99
  16.8884         63
  17.0741         75
  17.2599        102
  17.4457         82
  17.6314         85
  17.8172         69
  18.0029         90
  18.1887         74
  18.3744         88
  18.5602         74
  18.7459         76
  18.9317         65
  19.1175         88
  19.3032         81
  19.4890         82
  19.6747         99
  19.8605         81
  20.0462         90
  20.2320         81
  20.4177         96
  20.6035         93
  20.7893         79
  20.9750         92
  21.1608        138
  21.3465        247
  21.5323        123
  21.7180        102
  21.9038        122
  22.0896        101
  22.2753         71
  22.4611        101
  22.6468         85
  22.8326        126
  23.0183        107
  23.2041        100
  23.3898         92
  23.5756         98
  23.7614        108
  23.9471        110
  24.1329        119
  24.3186        132
  24.5044         92
  24.6901        107
  24.8759        106
  25.0616         87
  25.2474         89
  25.4332        112
  25.6189         95
  25.8047        103
  25.9904        103
  26.1762         81
  26.3619         96
  26.5477         88
  26.7335         85
  26.9192        102
  27.1050         98
  27.2907        109
  27.4765         86
  27.6622         90
  27.8480         70
  28.0337         80
  28.2195         81
  28.4053         69
  28.5910         84
  28.7768         92
  28.9625         73
  29.1483         78
  29.3340         83
  29.5198         58
  29.7055         75
  29.8913         69
  30.0771         83
  30.2628         95
  30.4486        115
  30.6343         86
  30.8201         61
  31.0058         81
  31.1916         61
  31.3774         62
  31.5631         72
  31.7489         64
  31.9346         53
  32.1204         54
  32.3061         60
  32.4919         60
  32.6776         68
  32.8634         61
  33.0492         65
  33.2349         52
  33.4207         57
  33.6064         58
  33.7922         49
  33.9779         50
  34.1637         63
  34.3494         49
  34.5352         56
  34.7210         62
  34.9067         57
  35.0925         52
  35.2782         54
  35.4640         50
  35.6497         48
  35.8355         35
  36.0213         42
  36.2070         60
  36.3928         53
  36.5785         40
  36.7643         43
  36.9500         56
  37.1358         44
  37.3215         57
  37.5073         51
  37.6931         42
  37.8788         31
  38.0646         39
  38.2503         45
  38.4361         42
  38.6218         53
  38.8076         38
  38.9933         32
  39.1791         37
  39.3649         41
  39.5506         47
  39.7364         33
  39.9221         30
  40.1079         40
  40.2936         42
  40.4794         32
  40.6652         42
  40.8509         37
  41.0367         39
  41.2224         36
  41.4082         34
  41.5939         42
  41.7797         36
  41.9654         40
  42.1512         44
  42.3370         38
  42.5227         36
  42.7085         35
  42.8942         44
  43.0800         41
  43.2657         42
  43.4515         49
  43.6372         51
  43.8230         34
  44.0088         25
  44.1945         40
  44.3803         34
  44.5660         54
  44.7518         30
  44.9375         38
  45.1233         30
  45.3091         35
  45.4948         36
  45.6806         38
  45.8663         40
  46.0521         18
  46.2378         36
  46.4236         34
  46.6093         38
  46.7951         26
  46.9809         20
  47.1666         38
  47.3524         30
  47.5381         37
  47.7239         38
  47.9096         29
  48.0954         32
  48.2811         18
  48.4669         24
  48.6527         32
  48.8384         38
  49.0242         41
  49.2099         25
  49.3957         35
  49.5814         24
  49.7672         28
  49.9530         26
  50.1387         36
  50.3245         40
  50.5102         34
  50.6960         30
  50.8817         26
  51.0675         31
  51.2532         28
  51.4390         32
  51.6248         27
  51.8105         29
  51.9963         17
  52.1820         30
  52.3678         31
  52.5535         32
  52.7393         28
  52.9250         23
  53.1108         26
  53.2966         33
  53.4823         27
  53.6681         36
  53.8538         30
  54.0396         18
  54.2253         30
  54.4111         36
  54.5969         29
  54.7826         24
  54.9684         31
  55.1541         25
  55.3399         32
  55.5256         29
  55.7114         21
  55.8971         31
  56.0829         26
  56.2687         32
  56.4544         32
  56.6402         33
  56.8259         25
  57.0117         21
  57.1974         34
  57.3832         29
  57.5689         31
  57.7547         38
  57.9405         26
  58.1262         25
  58.3120         31
  58.4977         21
  58.6835         22
  58.8692         26
  59.0550         25
  59.2408         21
  59.4265         21
  59.6123         19
  59.7980         28
  59.9838         27
  60.0024         27

File: ML_20220718_52_SJD_4_LaB6-4min.uxd
; (content of file Y:\Sam\Apurva-07-20-2022\puck4\ML_20220718_52_SJD_4_LaB6-4min.raw)
_FILEVERSION = 3
_SAMPLE = ML_20220718_52_SJD_4_LaB6-4min
_+SAMPLE =
_SITE = USA
_USER = Administrator
_GONIOMETER_CODE = 20
; Goniometer : D8 theta/2theta, stage : Unknown
_ATTACHMENTS_CODE = 0
_GONIOMETER_RADIUS = 200.5
_FIXED_DIVSLIT = 0.6
_FIXED_SAMPLESLIT = 0
_SOLLER_SLITS = 2
_FIXED_DETSLIT = 9.55
_MONOCHROMATOR = 0
; Incident beam monochromator : None
_SOLLER_SLITS_2 = N
_THIN_FILM = N
_BETA_FILTER = Y
_FIXED_ANTISLIT = 5.89
_ANALYZER_CODE = 0
; Received beam analyzer : None
_DATEMEASURED = "26-Jul-2022 14:09:44"
_WL_UNIT = A
_WL1 = 1.5406
_WL2 = 1.54439
_WL3 = 1.39222
_WLRATIO = 0.5
_ANODE = Cu
_V4_INF_CREATOR = XRDWizard
_V4_INF_CREATOR_VERSION = V2.9.0.22
_V4_INF_WIZARD_VERSION = V2.9.0.22
_V4_INF_WIZARD_ADDINS = V2.9.0.22
_V4_INF_WIZARD_DOCTYPE = XRD
_V4_INF_OSUSER = McQueenLab
_V4_INF_USER = Administrator
_V4_INF_SITE = USA
_V4_INF_SAMPLEID = ML_20220718_52_SJD_4_LaB6-4min

; Data for range 1
_DRIVE = COUPLED
_STEPTIME = 11.28
_STEPSIZE = 0.0185756
_STEPMODE = C
_START = 5
_THETA = 2.5
_2THETA = 5
_KHI = 0
_PHI = 0
_X = 0
_Y = 0
_Z = 0
_DETECTOR = 5
; Detector type : Unknown
_DETECTORSLIT = unkn
_AUX1 = 0
_AUX2 = 0
_AUX3 = 0
_TIMESTARTED = 15
_TEMP_RATE = -1
_TEMP_DELAY = -1
_KV = 40
_MA = 40
_RANGE_WL = 1.5406
_3DPLANE = 0
_V4_ADDITIONALDETECTOR = 257
_V4_PSD2THETA = 3.3662
_V4_PSDCHANNEL1 = 0
_V4_PSDAPERTURE = 12.68
_V4_PSDTYPE = 5
_V4_PSDFIXED = 0
_V4_COUNTERS_MASK = 4096
_V4_DRIVES_MASK = 0
_V4_ENCODERS_MASK = 0
_2THETACOUNTS = 1
; 2THETA  PSD
   5.0000        270
   5.1858        245
   5.3715        227
   5.5573        212
   5.7430        223
   5.9288        209
   6.1145        182
   6.3003        199
   6.4860        165
   6.6718        169
   6.8576        158
   7.0433        180
   7.2291        159
   7.4148        158
   7.6006        162
   7.7863        171
   7.9721        176
   8.1579        190
   8.3436        203
   8.5294        208
   8.7151        199
   8.9009        202
   9.0866        223
   9.2724        238
   9.4581        248
   9.6439        223
   9.8297        232
  10.0154        227
  10.2012        249
  10.3869        251
  10.5727        243
  10.7584        251
  10.9442        262
  11.1299        273
  11.3157        250
  11.5015        214
  11.6872        239
  11.8730        203
  12.0587        237
  12.2445        219
  12.4302        188
  12.6160        207
  12.8018        196
  12.9875        194
  13.1733        207
  13.3590        210
  13.5448        199
  13.7305        180
  13.9163        182
  14.1020        200
  14.2878        158
  14.4736        167
  14.6593        160
  14.8451        170
  15.0308        161
  15.2166        162
  15.4023        169
  15.5881        155
  15.7738        165
  15.9596        154
  16.1454        156
  16.3311        160
  16.5169        136
  16.7026        188
  16.8884        160
  17.0741        165
  17.2599        162
  17.4457        165
  17.6314        161
  17.8172        171
  18.0029        162
  18.1887        173
  18.3744        172
  18.5602        177
  18.7459        159
  18.9317        157
  19.1175        167
  19.3032        174
  19.4890        175
  19.6747        191
  19.8605        187
  20.0462        189
  20.2320        188
  20.4177        192
  20.6035        194
  20.7893        163
  20.9750        179
  21.1608        231
  21.3465        478
  21.5323        190
  21.7180        179
  21.9038        188
  22.0896        181
  22.2753        217
  22.4611        204
  22.6468        193
  22.8326        183
  23.0183        185
  23.2041        216
  23.3898        204
  23.5756        197
  23.7614        189
  23.9471        188
  24.1329        193
  24.3186        238
  24.5044        205
  24.6901        204
  24.8759        207
  25.0616        232
  25.2474        192
  25.4332        177
  25.6189        206
  25.8047        198
  25.9904        193
  26.1762        194
  26.3619        199
  26.5477        189
  26.7335        197
  26.9192        207
  27.1050        200
  27.2907        212
  27.4765        199
  27.6622        170
  27.8480        189
  28.0337        169
  28.2195        200
  28.4053        161
  28.5910        156
  28.7768        169
  28.9625        174
  29.1483        170
  29.3340        182
  29.5198        187
  29.7055        164
  29.8913        178
  30.0771        168
  30.2628        167
  30.4486        231
  30.6343        153
  30.8201        171
  31.0058        151
  31.1916        135
  31.3774        149
  31.5631        135
  31.7489        150
  31.9346        127
  32.1204        123
  32.3061        145
  32.4919        173
  32.6776        128
  32.8634        147
  33.0492        126
  33.2349        125
  33.4207        134
  33.6064        108
  33.7922        125
  33.9779        121
  34.1637        113
  34.3494        121
  34.5352        112
  34.7210        147
  34.9067        115
  35.0925         79
  35.2782        100
  35.4640        102
  35.6497        103
  35.8355         87
  36.0213         97
  36.2070         99
  36.3928         78
  36.5785         83
  36.7643         94
  36.9500         93
  37.1358        103
  37.3215        102
  37.5073        101
  37.6931         89
  37.8788         79
  38.0646         86
  38.2503         85
  38.4361         77
  38.6218         80
  38.8076         97
  38.9933         57
  39.1791         82
  39.3649         85
  39.5506         67
  39.7364         84
  39.9221         77
  40.1079         75
  40.2936         69
  40.4794         62
  40.6652         64
  40.8509         82
  41.0367         81
  41.2224         75
  41.4082         67
  41.5939         64
  41.7797         74
  41.9654         75
  42.1512         80
  42.3370         65
  42.5227         75
  42.7085         72
  42.8942         84
  43.0800         75
  43.2657         88
  43.4515         80
  43.6372         92
  43.8230         79
  44.0088         57
  44.1945         67
  44.3803         75
  44.5660         73
  44.7518         70
  44.9375         71
  45.1233         74
  45.3091         56
  45.4948         67
  45.6806         61
  45.8663         55
  46.0521         71
  46.2378         71
  46.4236         66
  46.6093         84
  46.7951         59
  46.9809         64
  47.1666         64
  47.3524         57
  47.5381         71
  47.7239         67
  47.9096         71
  48.0954         69
  48.2811         50
  48.4669         62
  48.6527         38
  48.8384         78
  49.0242         57
  49.2099         71
  49.3957         60
  49.5814         64
  49.7672         62
  49.9530         55
  50.1387         71
  50.3245         60
  50.5102         66
  50.6960         56
  50.8817         77
  51.0675         59
  51.2532         47
  51.4390         61
  51.6248         53
  51.8105         67
  51.9963         71
  52.1820         64
  52.3678         61
  52.5535         44
  52.7393         59
  52.9250         60
  53.1108         57
  53.2966         52
  53.4823         60
  53.6681         53
  53.8538         57
  54.0396         70
  54.2253         68
  54.4111         54
  54.5969         50
  54.7826         51
  54.9684         54
  55.1541         51
  55.3399         55
  55.5256         52
  55.7114         52
  55.8971         51
  56.0829         50
  56.2687         71
  56.4544         63
  56.6402         65
  56.8259         49
  57.0117         65
  57.1974         63
  57.3832         63
  57.5689         50
  57.7547         55
  57.9405         50
  58.1262         56
  58.3120         49
  58.4977         56
  58.6835         56
  58.8692         58
  59.0550         56
  59.2408         46
  59.4265         58
  59.6123         55
  59.7980         41
  59.9838         44
  60.0024         57

File: ML_20220718_53_SJD_4_LaB6-1min.csv
;,2THETA,
5.0000,87
5.1858,95
5.3715,97
5.5573,86
5.7430,87
5.9288,72
6.1145,51
6.3003,74
6.4860,55
6.6718,61
6.8576,64
7.0433,47
7.2291,72
7.4148,57
7.6006,52
7.7863,60
7.9721,71
8.1579,72
8.3436,75
8.5294,64
8.7151,77
8.9009,74
9.0866,84
9.2724,85
9.4581,87
9.6439,84
9.8297,79
10.0154,101
10.2012,74
10.3869,91
10.5727,83
10.7584,70
10.9442,73
11.1299,92
11.3157,89
11.5015,87
11.6872,85
11.8730,67
12.0587,80
12.2445,74
12.4302,94
12.6160,89
12.8018,78
12.9875,63
13.1733,70
13.3590,76
13.5448,75
13.7305,79
13.9163,60
14.1020,67
14.2878,76
14.4736,67
14.6593,67
14.8451,62
15.0308,81
15.2166,64
15.4023,63
15.5881,68
15.7738,63
15.9596,59
16.1454,70
16.3311,59
16.5169,46
16.7026,59
16.8884,63
17.0741,64
17.2599,54
17.4457,60
17.6314,49
17.8172,68
18.0029,59
18.1887,69
18.3744,53
18.5602,59
18.7459,66
18.9317,58
19.1175,62
19.3032,61
19.4890,70
19.6747,57
19.8605,72
20.0462,78
20.2320,68
20.4177,81
20.6035,68
20.7893,73
20.9750,63
21.1608,87
21.3465,189
21.5323,77
21.7180,74
21.9038,78
22.0896,70
22.2753,86
22.4611,59
22.6468,65
22.8326,71
23.0183,65
23.2041,82
23.3898,77
23.5756,65
23.7614,67
23.9471,63
24.1329,74
24.3186,89
24.5044,78
24.6901,73
24.8759,76
25.0616,77
25.2474,67
25.4332,80
25.6189,74
25.8047,69
25.9904,73
26.1762,65
26.3619,75
26.5477,76
26.7335,58
26.9192,56
27.1050,70
27.2907,75
27.4765,78
27.6622,75
27.8480,85
28.0337,57
28.2195,60
28.4053,53
28.5910,58
28.7768,52
28.9625,59
29.1483,56
29.3340,51
29.5198,50
29.7055,64
29.8913,68
30.0771,56
30.2628,52
30.4486,96
30.6343,61
30.8201,50
31.0058,54
31.1916,44
31.3774,49
31.5631,54
31.7489,60
31.9346,56
32.1204,56
32.3061,47
32.4919,63
32.6776,45
32.8634,48
33.0492,38
33.2349,44
33.4207,49
33.6064,34
33.7922,52
33.9779,33
34.1637,42
34.3494,32
34.5352,43
34.7210,58
34.9067,39
35.0925,41
35.2782,29
35.4640,37
35.6497,30
35.8355,37
36.0213,31
36.2070,41
36.3928,31
36.5785,30
36.7643,30
36.9500,30
37.1358,39
37.3215,42
37.5073,57
37.6931,39
37.8788,30
38.0646,31
38.2503,37
38.4361,29
38.6218,20
38.8076,36
38.9933,22
39.1791,37
39.3649,35
39.5506,34
39.7364,26
39.9221,22
40.1079,26
40.2936,27
40.4794,36
40.6652,22
40.8509,38
41.0367,29
41.2224,30
41.4082,28
41.5939,26
41.7797,29
41.9654,22
42.1512,26
42.3370,27
42.5227,33
42.7085,22
42.8942,26
43.0800,26
43.2657,29
43.4515,37
43.6372,43
43.8230,27
44.0088,18
44.1945,30
44.3803,25
44.5660,28
44.7518,26
44.9375,33
45.1233,23
45.3091,25
45.4948,24
45.6806,26
45.8663,27
46.0521,18
46.2378,21
46.4236,26
46.6093,23
46.7951,33
46.9809,24
47.1666,30
47.3524,23
47.5381,20
47.7239,29
47.9096,25
48.0954,17
48.2811,21
48.4669,16
48.6527,27
48.8384,25
49.0242,19
49.2099,31
49.3957,27
49.5814,31
49.7672,24
49.9530,23
50.1387,24
50.3245,21
50.5102,23
50.6960,22
50.8817,12
51.0675,24
51.2532,25
51.4390,23
51.6248,24
51.8105,24
51.9963,19
52.1820,22
52.3678,16
52.5535,12
52.7393,15
52.9250,24
53.1108,26
53.2966,17
53.4823,18
53.6681,20
53.8538,27
54.0396,25
54.2253,25
54.4111,19
54.5969,27
54.7826,23
54.9684,23
55.1541,19
55.3399,25
55.5256,25
55.7114,22
55.8971,13
56.0829,24
56.2687,31
56.4544,17
56.6402,20
56.8259,21
57.0117,21
57.1974,18
57.3832,29
57.5689,18
57.7547,28
57.9405,19
58.1262,14
58.3120,13
58.4977,23
58.6835,19
58.8692,15
59.0550,12
59.2408,20
59.4265,20
59.6123,24
59.7980,9
59.9838,14
60.0024,20