Folder: xrd_clustering/notebooks/data/xrd_data (part 44)

File: ML_20220721_35_SJD_4_LaB6-4min.csv
;,2THETA,
5.0000,273
5.1858,254
5.3715,247
5.5573,204
5.7430,194
5.9288,193
6.1145,152
6.3003,180
6.4860,164
6.6718,164
6.8576,178
7.0433,170
7.2291,167
7.4148,169
7.6006,152
7.7863,178
7.9721,202
8.1579,218
8.3436,179
8.5294,192
8.7151,183
8.9009,215
9.0866,240
9.2724,238
9.4581,204
9.6439,206
9.8297,269
10.0154,219
10.2012,243
10.3869,253
10.5727,239
10.7584,239
10.9442,233
11.1299,202
11.3157,259
11.5015,268
11.6872,238
11.8730,265
12.0587,232
12.2445,224
12.4302,230
12.6160,209
12.8018,210
12.9875,205
13.1733,218
13.3590,212
13.5448,191
13.7305,185
13.9163,184
14.1020,161
14.2878,191
14.4736,186
14.6593,176
14.8451,182
15.0308,141
15.2166,158
15.4023,188
15.5881,175
15.7738,162
15.9596,187
16.1454,150
16.3311,151
16.5169,171
16.7026,174
16.8884,149
17.0741,168
17.2599,179
17.4457,155
17.6314,164
17.8172,176
18.0029,158
18.1887,172
18.3744,174
18.5602,172
18.7459,171
18.9317,161
19.1175,184
19.3032,189
19.4890,182
19.6747,179
19.8605,216
20.0462,166
20.2320,203
20.4177,184
20.6035,197
20.7893,170
20.9750,189
21.1608,246
21.3465,518
21.5323,185
21.7180,193
21.9038,190
22.0896,164
22.2753,204
22.4611,191
22.6468,191
22.8326,205
23.0183,199
23.2041,194
23.3898,203
23.5756,192
23.7614,210
23.9471,213
24.1329,225
24.3186,247
24.5044,197
24.6901,186
24.8759,227
25.0616,203
25.2474,214
25.4332,190
25.6189,192
25.8047,197
25.9904,193
26.1762,198
26.3619,191
26.5477,189
26.7335,188
26.9192,213
27.1050,182
27.2907,220
27.4765,199
27.6622,179
27.8480,167
28.0337,174
28.2195,168
28.4053,183
28.5910,186
28.7768,161
28.9625,176
29.1483,168
29.3340,172
29.5198,170
29.7055,165
29.8913,138
30.0771,158
30.2628,183
30.4486,232
30.6343,156
30.8201,157
31.0058,143
31.1916,139
31.3774,140
31.5631,143
31.7489,116
31.9346,146
32.1204,124
32.3061,123
32.4919,151
32.6776,117
32.8634,123
33.0492,126
33.2349,125
33.4207,90
33.6064,126
33.7922,137
33.9779,126
34.1637,111
34.3494,124
34.5352,121
34.7210,133
34.9067,128
35.0925,123
35.2782,100
35.4640,101
35.6497,82
35.8355,81
36.0213,107
36.2070,103
36.3928,79
36.5785,88
36.7643,94
36.9500,100
37.1358,86
37.3215,89
37.5073,119
37.6931,77
37.8788,87
38.0646,73
38.2503,75
38.4361,91
38.6218,76
38.8076,93
38.9933,88
39.1791,83
39.3649,85
39.5506,74
39.7364,87
39.9221,84
40.1079,78
40.2936,80
40.4794,88
40.6652,89
40.8509,84
41.0367,62
41.2224,94
41.4082,71
41.5939,73
41.7797,75
41.9654,67
42.1512,77
42.3370,75
42.5227,86
42.7085,75
42.8942,61
43.0800,84
43.2657,87
43.4515,80
43.6372,100
43.8230,69
44.0088,72
44.1945,68
44.3803,89
44.5660,73
44.7518,76
44.9375,71
45.1233,60
45.3091,70
45.4948,72
45.6806,66
45.8663,70
46.0521,54
46.2378,87
46.4236,67
46.6093,72
46.7951,60
46.9809,61
47.1666,49
47.3524,72
47.5381,77
47.7239,57
47.9096,66
48.0954,67
48.2811,71
48.4669,75
48.6527,54
48.8384,70
49.0242,90
49.2099,61
49.3957,64
49.5814,63
49.7672,57
49.9530,67
50.1387,67
50.3245,57
50.5102,64
50.6960,68
50.8817,53
51.0675,41
51.2532,68
51.4390,71
51.6248,52
51.8105,66
51.9963,67
52.1820,69
52.3678,54
52.5535,52
52.7393,64
52.9250,54
53.1108,66
53.2966,48
53.4823,45
53.6681,48
53.8538,66
54.0396,68
54.2253,52
54.4111,53
54.5969,64
54.7826,54
54.9684,54
55.1541,59
55.3399,56
55.5256,52
55.7114,54
55.8971,50
56.0829,74
56.2687,57
56.4544,65
56.6402,60
56.8259,54
57.0117,57
57.1974,56
57.3832,61
57.5689,60
57.7547,54
57.9405,48
58.1262,57
58.3120,66
58.4977,47
58.6835,59
58.8692,57
59.0550,55
59.2408,57
59.4265,63
59.6123,60
59.7980,53
59.9838,55
60.0024,52

File: ML_20220721_36_SJD_4_LaB6-4min.uxd
; (content of file Y:\Sam\Apurva-07-20-2022\puck1\ML_20220721_36_SJD_0_LaB6-4min.raw)
_FILEVERSION = 3
_SAMPLE = ML_20220721_36_SJD_0_LaB6-4min
_+SAMPLE =
_SITE = USA
_USER = Administrator
_GONIOMETER_CODE = 20
; Goniometer : D8 theta/2theta, stage : Unknown
_ATTACHMENTS_CODE = 0
_GONIOMETER_RADIUS = 200.5
_FIXED_DIVSLIT = 0.6
_FIXED_SAMPLESLIT = 0
_SOLLER_SLITS = 2
_FIXED_DETSLIT = 9.55
_MONOCHROMATOR = 0
; Incident beam monochromator : None
_SOLLER_SLITS_2 = N
_THIN_FILM = N
_BETA_FILTER = Y
_FIXED_ANTISLIT = 5.89
_ANALYZER_CODE = 0
; Received beam analyzer : None
_DATEMEASURED = "25-Jul-2022 16:33:52"
_WL_UNIT = A
_WL1 = 1.5406
_WL2 = 1.54439
_WL3 = 1.39222
_WLRATIO = 0.5
_ANODE = Cu
_V4_INF_CREATOR = XRDWizard
_V4_INF_CREATOR_VERSION = V2.9.0.22
_V4_INF_WIZARD_VERSION = V2.9.0.22
_V4_INF_WIZARD_ADDINS = V2.9.0.22
_V4_INF_WIZARD_DOCTYPE = XRD
_V4_INF_OSUSER = McQueenLab
_V4_INF_USER = Administrator
_V4_INF_SITE = USA
_V4_INF_SAMPLEID = ML_20220721_36_SJD_0_LaB6-4min

; Data for range 1
_DRIVE = COUPLED
_STEPTIME = 11.28
_STEPSIZE = 0.0185756
_STEPMODE = C
_START = 5
_THETA = 2.5
_2THETA = 5
_KHI = 0
_PHI = 0
_X = 0
_Y = 0
_Z = 0
_DETECTOR = 5
; Detector type : Unknown
_DETECTORSLIT = unkn
_AUX1 = 0
_AUX2 = 0
_AUX3 = 0
_TIMESTARTED = 15
_TEMP_RATE = -1
_TEMP_DELAY = -1
_KV = 40
_MA = 40
_RANGE_WL = 1.5406
_3DPLANE = 0
_V4_ADDITIONALDETECTOR = 257
_V4_PSD2THETA = 3.3675
_V4_PSDCHANNEL1 = 0
_V4_PSDAPERTURE = 12.68
_V4_PSDTYPE = 5
_V4_PSDFIXED = 0
_V4_COUNTERS_MASK = 4096
_V4_DRIVES_MASK = 0
_V4_ENCODERS_MASK = 0
_2THETACOUNTS = 1
; 2THETA  PSD
   5.0000        275
   5.1858        275
   5.3715        207
   5.5573        222
   5.7430        197
   5.9288        209
   6.1145        219
   6.3003        198
   6.4860        187
   6.6718        184
   6.8576        157
   7.0433        156
   7.2291        158
   7.4148        181
   7.6006        163
   7.7863        170
   7.9721        195
   8.1579        166
   8.3436        210
   8.5294        190
   8.7151        210
   8.9009        213
   9.0866        218
   9.2724        221
   9.4581        212
   9.6439        235
   9.8297        247
  10.0154        233
  10.2012        233
  10.3869        226
  10.5727        235
  10.7584        275
  10.9442        234
  11.1299        240
  11.3157        220
  11.5015        222
  11.6872        221
  11.8730        234
  12.0587        233
  12.2445        221
  12.4302        230
  12.6160        194
  12.8018        190
  12.9875        220
  13.1733        185
  13.3590        196
  13.5448        215
  13.7305        189
  13.9163        194
  14.1020        170
  14.2878        177
  14.4736        186
  14.6593        170
  14.8451        165
  15.0308        174
  15.2166        164
  15.4023        166
  15.5881        188
  15.7738        201
  15.9596        155
  16.1454        173
  16.3311        155
  16.5169        142
  16.7026        161
  16.8884        148
  17.0741        166
  17.2599        171
  17.4457        168
  17.6314        164
  17.8172        175
  18.0029        180
  18.1887        141
  18.3744        173
  18.5602        170
  18.7459        154
  18.9317        175
  19.1175        186
  19.3032        173
  19.4890        170
  19.6747        188
  19.8605        183
  20.0462        168
  20.2320        195
  20.4177        192
  20.6035        187
  20.7893        175
  20.9750        211
  21.1608        241
  21.3465        476
  21.5323        208
  21.7180        187
  21.9038        200
  22.0896        184
  22.2753        216
  22.4611        220
  22.6468        206
  22.8326        183
  23.0183        199
  23.2041        198
  23.3898        198
  23.5756        206
  23.7614        216
  23.9471        216
  24.1329        210
  24.3186        200
  24.5044        189
  24.6901        234
  24.8759        187
  25.0616        204
  25.2474        206
  25.4332        199
  25.6189        212
  25.8047        199
  25.9904        227
  26.1762        184
  26.3619        187
  26.5477        182
  26.7335        181
  26.9192        184
  27.1050        205
  27.2907        215
  27.4765        187
  27.6622        168
  27.8480        180
  28.0337        164
  28.2195        172
  28.4053        155
  28.5910        176
  28.7768        176
  28.9625        174
  29.1483        162
  29.3340        153
  29.5198        155
  29.7055        158
  29.8913        161
  30.0771        190
  30.2628        159
  30.4486        247
  30.6343        148
  30.8201        143
  31.0058        142
  31.1916        145
  31.3774        143
  31.5631        157
  31.7489        122
  31.9346        151
  32.1204        156
  32.3061        137
  32.4919        149
  32.6776        121
  32.8634        140
  33.0492        114
  33.2349        130
  33.4207        128
  33.6064        115
  33.7922        105
  33.9779        119
  34.1637        112
  34.3494        117
  34.5352        124
  34.7210        148
  34.9067        118
  35.0925        127
  35.2782        104
  35.4640        122
  35.6497        111
  35.8355         88
  36.0213        113
  36.2070         94
  36.3928        106
  36.5785        108
  36.7643         89
  36.9500         94
  37.1358         93
  37.3215         91
  37.5073        120
  37.6931         82
  37.8788         89
  38.0646         90
  38.2503         89
  38.4361         88
  38.6218         84
  38.8076         65
  38.9933         88
  39.1791         91
  39.3649         62
  39.5506         71
  39.7364         77
  39.9221         72
  40.1079         82
  40.2936         87
  40.4794         71
  40.6652         66
  40.8509         85
  41.0367         71
  41.2224         85
  41.4082         84
  41.5939         79
  41.7797         79
  41.9654         79
  42.1512         76
  42.3370         72
  42.5227         68
  42.7085         74
  42.8942         88
  43.0800         61
  43.2657         89
  43.4515         74
  43.6372         99
  43.8230         70
  44.0088         78
  44.1945         67
  44.3803         82
  44.5660         74
  44.7518         74
  44.9375         54
  45.1233         73
  45.3091         75
  45.4948         88
  45.6806         58
  45.8663         71
  46.0521         58
  46.2378         74
  46.4236         83
  46.6093         58
  46.7951         81
  46.9809         59
  47.1666         63
  47.3524         66
  47.5381         68
  47.7239         60
  47.9096         62
  48.0954         71
  48.2811         77
  48.4669         55
  48.6527         75
  48.8384         60
  49.0242         74
  49.2099         70
  49.3957         68
  49.5814         72
  49.7672         60
  49.9530         62
  50.1387         58
  50.3245         57
  50.5102         55
  50.6960         60
  50.8817         60
  51.0675         57
  51.2532         62
  51.4390         55
  51.6248         55
  51.8105         50
  51.9963         73
  52.1820         79
  52.3678         70
  52.5535         45
  52.7393         52
  52.9250         49
  53.1108         53
  53.2966         51
  53.4823         66
  53.6681         63
  53.8538         50
  54.0396         59
  54.2253         69
  54.4111         68
  54.5969         52
  54.7826         43
  54.9684         62
  55.1541         56
  55.3399         59
  55.5256         55
  55.7114         60
  55.8971         60
  56.0829         63
  56.2687         75
  56.4544         54
  56.6402         65
  56.8259         56
  57.0117         62
  57.1974         57
  57.3832         63
  57.5689         52
  57.7547         62
  57.9405         64
  58.1262         49
  58.3120         65
  58.4977         38
  58.6835         52
  58.8692         65
  59.0550         63
  59.2408         49
  59.4265         55
  59.6123         55
  59.7980         43
  59.9838         49
  60.0024         50

File: ML_20220721_37_SJD_4_LaB6-4min.uxd
; (content of file Y:\Sam\Apurva-07-20-2022\puck1\ML_20220721_37_SJD_0_LaB6-4min.raw)
_FILEVERSION = 3
_SAMPLE = ML_20220721_37_SJD_0_LaB6-4min
_+SAMPLE =
_SITE = USA
_USER = Administrator
_GONIOMETER_CODE = 20
; Goniometer : D8 theta/2theta, stage : Unknown
_ATTACHMENTS_CODE = 0
_GONIOMETER_RADIUS = 200.5
_FIXED_DIVSLIT = 0.6
_FIXED_SAMPLESLIT = 0
_SOLLER_SLITS = 2
_FIXED_DETSLIT = 9.55
_MONOCHROMATOR = 0
; Incident beam monochromator : None
_SOLLER_SLITS_2 = N
_THIN_FILM = N
_BETA_FILTER = Y
_FIXED_ANTISLIT = 5.89
_ANALYZER_CODE = 0
; Received beam analyzer : None
_DATEMEASURED = "25-Jul-2022 16:38:20"
_WL_UNIT = A
_WL1 = 1.5406
_WL2 = 1.54439
_WL3 = 1.39222
_WLRATIO = 0.5
_ANODE = Cu
_V4_INF_CREATOR = XRDWizard
_V4_INF_CREATOR_VERSION = V2.9.0.22
_V4_INF_WIZARD_VERSION = V2.9.0.22
_V4_INF_WIZARD_ADDINS = V2.9.0.22
_V4_INF_WIZARD_DOCTYPE = XRD
_V4_INF_OSUSER = McQueenLab
_V4_INF_USER = Administrator
_V4_INF_SITE = USA
_V4_INF_SAMPLEID = ML_20220721_37_SJD_0_LaB6-4min

; Data for range 1
_DRIVE = COUPLED
_STEPTIME = 11.28
_STEPSIZE = 0.0185756
_STEPMODE = C
_START = 5
_THETA = 2.5
_2THETA = 5
_KHI = 0
_PHI = 0
_X = 0
_Y = 0
_Z = 0
_DETECTOR = 5
; Detector type : Unknown
_DETECTORSLIT = unkn
_AUX1 = 0
_AUX2 = 0
_AUX3 = 0
_TIMESTARTED = 14
_TEMP_RATE = -1
_TEMP_DELAY = -1
_KV = 40
_MA = 40
_RANGE_WL = 1.5406
_3DPLANE = 0
_V4_ADDITIONALDETECTOR = 257
_V4_PSD2THETA = 3.3877
_V4_PSDCHANNEL1 = 0
_V4_PSDAPERTURE = 12.68
_V4_PSDTYPE = 5
_V4_PSDFIXED = 0
_V4_COUNTERS_MASK = 4096
_V4_DRIVES_MASK = 0
_V4_ENCODERS_MASK = 0
_2THETACOUNTS = 1
; 2THETA  PSD
   5.0000        276
   5.1858        253
   5.3715        261
   5.5573        237
   5.7430        206
   5.9288        226
   6.1145        187
   6.3003        192
   6.4860        169
   6.6718        172
   6.8576        167
   7.0433        176
   7.2291        184
   7.4148        198
   7.6006        157
   7.7863        164
   7.9721        201
   8.1579        200
   8.3436        201
   8.5294        194
   8.7151        197
   8.9009        244
   9.0866        221
   9.2724        236
   9.4581        207
   9.6439        229
   9.8297        232
  10.0154        246
  10.2012        266
  10.3869        260
  10.5727        243
  10.7584        249
  10.9442        231
  11.1299        247
  11.3157        256
  11.5015        249
  11.6872        242
  11.8730        247
  12.0587        233
  12.2445        207
  12.4302        219
  12.6160        232
  12.8018        212
  12.9875        223
  13.1733        203
  13.3590        189
  13.5448        161
  13.7305        217
  13.9163        183
  14.1020        176
  14.2878        190
  14.4736        180
  14.6593        175
  14.8451        174
  15.0308        160
  15.2166        198
  15.4023        178
  15.5881        162
  15.7738        152
  15.9596        204
  16.1454        156
  16.3311        168
  16.5169        136
  16.7026        160
  16.8884        172
  17.0741        157
  17.2599        173
  17.4457        179
  17.6314        175
  17.8172        168
  18.0029        179
  18.1887        140
  18.3744        171
  18.5602        161
  18.7459        173
  18.9317        170
  19.1175        169
  19.3032        179
  19.4890        197
  19.6747        174
  19.8605        204
  20.0462        180
  20.2320        193
  20.4177        170
  20.6035        172
  20.7893        200
  20.9750        190
  21.1608        229
  21.3465        486
  21.5323        203
  21.7180        214
  21.9038        178
  22.0896        189
  22.2753        179
  22.4611        199
  22.6468        212
  22.8326        197
  23.0183        200
  23.2041        206
  23.3898        204
  23.5756        217
  23.7614        189
  23.9471        211
  24.1329        187
  24.3186        227
  24.5044        216
  24.6901        194
  24.8759        198
  25.0616        213
  25.2474        216
  25.4332        195
  25.6189        180
  25.8047        184
  25.9904        213
  26.1762        198
  26.3619        188
  26.5477        176
  26.7335        180
  26.9192        188
  27.1050        205
  27.2907        217
  27.4765        187
  27.6622        195
  27.8480        181
  28.0337        180
  28.2195        182
  28.4053        145
  28.5910        168
  28.7768        169
  28.9625        174
  29.1483        152
  29.3340        151
  29.5198        156
  29.7055        148
  29.8913        158
  30.0771        150
  30.2628        161
  30.4486        228
  30.6343        146
  30.8201        164
  31.0058        156
  31.1916        145
  31.3774        129
  31.5631        121
  31.7489        149
  31.9346        122
  32.1204        141
  32.3061        140
  32.4919        156
  32.6776        128
  32.8634        106
  33.0492        129
  33.2349        136
  33.4207        130
  33.6064        101
  33.7922        106
  33.9779        118
  34.1637        105
  34.3494        107
  34.5352        123
  34.7210        133
  34.9067        118
  35.0925         96
  35.2782        100
  35.4640         96
  35.6497        105
  35.8355         99
  36.0213        110
  36.2070        104
  36.3928        113
  36.5785         93
  36.7643         81
  36.9500         97
  37.1358        108
  37.3215         95
  37.5073        111
  37.6931        103
  37.8788         87
  38.0646         76
  38.2503         91
  38.4361         78
  38.6218         79
  38.8076         71
  38.9933         79
  39.1791         92
  39.3649        102
  39.5506         77
  39.7364         89
  39.9221         85
  40.1079         71
  40.2936         71
  40.4794         63
  40.6652         47
  40.8509         71
  41.0367         84
  41.2224         71
  41.4082         90
  41.5939         77
  41.7797         80
  41.9654         69
  42.1512         71
  42.3370         69
  42.5227         79
  42.7085         81
  42.8942         85
  43.0800         84
  43.2657        102
  43.4515         80
  43.6372        100
  43.8230         78
  44.0088         54
  44.1945         74
  44.3803         77
  44.5660         87
  44.7518         69
  44.9375         70
  45.1233         65
  45.3091         69
  45.4948         63
  45.6806         64
  45.8663         62
  46.0521         69
  46.2378         69
  46.4236         63
  46.6093         64
  46.7951         67
  46.9809         61
  47.1666         60
  47.3524         62
  47.5381         61
  47.7239         81
  47.9096         63
  48.0954         64
  48.2811         73
  48.4669         59
  48.6527         62
  48.8384         90
  49.0242         83
  49.2099         67
  49.3957         66
  49.5814         50
  49.7672         62
  49.9530         68
  50.1387         67
  50.3245         64
  50.5102         55
  50.6960         69
  50.8817         54
  51.0675         53
  51.2532         61
  51.4390         63
  51.6248         65
  51.8105         61
  51.9963         66
  52.1820         55
  52.3678         51
  52.5535         55
  52.7393         57
  52.9250         66
  53.1108         57
  53.2966         52
  53.4823         61
  53.6681         51
  53.8538         58
  54.0396         63
  54.2253         54
  54.4111         55
  54.5969         54
  54.7826         67
  54.9684         49
  55.1541         49
  55.3399         55
  55.5256         49
  55.7114         61
  55.8971         69
  56.0829         60
  56.2687         57
  56.4544         69
  56.6402         50
  56.8259         52
  57.0117         59
  57.1974         48
  57.3832         46
  57.5689         65
  57.7547         66
  57.9405         56
  58.1262         55
  58.3120         56
  58.4977         54
  58.6835         50
  58.8692         55
  59.0550         63
  59.2408         47
  59.4265         64
  59.6123         57
  59.7980         59
  59.9838         55
  60.0024         52