Folder: xrd_clustering/notebooks/data/xrd_data (part 28)

File: ML_20220720_4_SJD_4_LaB6-2min.csv
;,2THETA,
5.0000,131
5.1858,119
5.3715,141
5.5573,100
5.7430,100
5.9288,97
6.1145,94
6.3003,68
6.4860,78
6.6718,80
6.8576,85
7.0433,102
7.2291,80
7.4148,65
7.6006,82
7.7863,102
7.9721,95
8.1579,91
8.3436,96
8.5294,110
8.7151,100
8.9009,87
9.0866,100
9.2724,112
9.4581,113
9.6439,88
9.8297,119
10.0154,131
10.2012,105
10.3869,141
10.5727,117
10.7584,114
10.9442,108
11.1299,113
11.3157,122
11.5015,101
11.6872,116
11.8730,106
12.0587,107
12.2445,114
12.4302,108
12.6160,125
12.8018,114
12.9875,98
13.1733,97
13.3590,110
13.5448,94
13.7305,89
13.9163,93
14.1020,84
14.2878,83
14.4736,91
14.6593,74
14.8451,81
15.0308,74
15.2166,86
15.4023,76
15.5881,93
15.7738,88
15.9596,71
16.1454,66
16.3311,81
16.5169,70
16.7026,86
16.8884,89
17.0741,86
17.2599,81
17.4457,78
17.6314,82
17.8172,62
18.0029,90
18.1887,91
18.3744,86
18.5602,61
18.7459,82
18.9317,77
19.1175,87
19.3032,79
19.4890,80
19.6747,83
19.8605,80
20.0462,84
20.2320,111
20.4177,87
20.6035,90
20.7893,92
20.9750,93
21.1608,133
21.3465,243
21.5323,80
21.7180,86
21.9038,104
22.0896,91
22.2753,91
22.4611,84
22.6468,109
22.8326,95
23.0183,93
23.2041,94
23.3898,82
23.5756,113
23.7614,102
23.9471,96
24.1329,107
24.3186,111
24.5044,96
24.6901,89
24.8759,112
25.0616,96
25.2474,88
25.4332,86
25.6189,96
25.8047,100
25.9904,92
26.1762,92
26.3619,84
26.5477,90
26.7335,112
26.9192,87
27.1050,107
27.2907,98
27.4765,94
27.6622,87
27.8480,95
28.0337,69
28.2195,96
28.4053,100
28.5910,78
28.7768,91
28.9625,75
29.1483,66
29.3340,88
29.5198,78
29.7055,60
29.8913,72
30.0771,63
30.2628,79
30.4486,118
30.6343,81
30.8201,83
31.0058,91
31.1916,73
31.3774,71
31.5631,67
31.7489,63
31.9346,67
32.1204,72
32.3061,60
32.4919,74
32.6776,45
32.8634,60
33.0492,66
33.2349,57
33.4207,50
33.6064,56
33.7922,56
33.9779,53
34.1637,60
34.3494,51
34.5352,48
34.7210,59
34.9067,58
35.0925,65
35.2782,48
35.4640,53
35.6497,57
35.8355,45
36.0213,46
36.2070,47
36.3928,42
36.5785,37
36.7643,28
36.9500,41
37.1358,39
37.3215,41
37.5073,57
37.6931,49
37.8788,48
38.0646,44
38.2503,32
38.4361,34
38.6218,43
38.8076,40
38.9933,47
39.1791,51
39.3649,33
39.5506,42
39.7364,35
39.9221,28
40.1079,37
40.2936,31
40.4794,46
40.6652,37
40.8509,30
41.0367,40
41.2224,40
41.4082,43
41.5939,27
41.7797,37
41.9654,35
42.1512,35
42.3370,45
42.5227,35
42.7085,36
42.8942,36
43.0800,43
43.2657,50
43.4515,45
43.6372,37
43.8230,33
44.0088,42
44.1945,45
44.3803,43
44.5660,40
44.7518,31
44.9375,33
45.1233,41
45.3091,36
45.4948,39
45.6806,26
45.8663,39
46.0521,34
46.2378,27
46.4236,38
46.6093,43
46.7951,35
46.9809,37
47.1666,38
47.3524,35
47.5381,32
47.7239,26
47.9096,34
48.0954,33
48.2811,26
48.4669,30
48.6527,34
48.8384,37
49.0242,37
49.2099,31
49.3957,28
49.5814,23
49.7672,27
49.9530,31
50.1387,29
50.3245,38
50.5102,25
50.6960,20
50.8817,27
51.0675,32
51.2532,21
51.4390,49
51.6248,38
51.8105,38
51.9963,45
52.1820,21
52.3678,31
52.5535,41
52.7393,29
52.9250,39
53.1108,29
53.2966,23
53.4823,40
53.6681,31
53.8538,38
54.0396,28
54.2253,20
54.4111,20
54.5969,27
54.7826,31
54.9684,34
55.1541,30
55.3399,34
55.5256,30
55.7114,28
55.8971,26
56.0829,33
56.2687,28
56.4544,32
56.6402,29
56.8259,26
57.0117,32
57.1974,30
57.3832,35
57.5689,27
57.7547,31
57.9405,33
58.1262,27
58.3120,30
58.4977,18
58.6835,17
58.8692,20
59.0550,31
59.2408,29
59.4265,30
59.6123,19
59.7980,26
59.9838,24
60.0024,29

File: ML_20220720_4_SJD_4_LaB6-4min.csv
;,2THETA,
5.0000,235
5.1858,260
5.3715,243
5.5573,221
5.7430,193
5.9288,177
6.1145,233
6.3003,219
6.4860,166
6.6718,193
6.8576,172
7.0433,171
7.2291,171
7.4148,163
7.6006,165
7.7863,174
7.9721,157
8.1579,184
8.3436,205
8.5294,179
8.7151,194
8.9009,186
9.0866,253
9.2724,234
9.4581,240
9.6439,207
9.8297,257
10.0154,234
10.2012,223
10.3869,207
10.5727,267
10.7584,242
10.9442,235
11.1299,251
11.3157,249
11.5015,223
11.6872,223
11.8730,219
12.0587,219
12.2445,218
12.4302,235
12.6160,199
12.8018,217
12.9875,216
13.1733,193
13.3590,214
13.5448,212
13.7305,203
13.9163,185
14.1020,179
14.2878,157
14.4736,173
14.6593,167
14.8451,181
15.0308,178
15.2166,196
15.4023,199
15.5881,167
15.7738,161
15.9596,178
16.1454,176
16.3311,194
16.5169,144
16.7026,184
16.8884,173
17.0741,177
17.2599,164
17.4457,155
17.6314,157
17.8172,165
18.0029,135
18.1887,170
18.3744,162
18.5602,173
18.7459,169
18.9317,168
19.1175,183
19.3032,158
19.4890,187
19.6747,175
19.8605,184
20.0462,172
20.2320,183
20.4177,193
20.6035,190
20.7893,192
20.9750,205
21.1608,239
21.3465,522
21.5323,179
21.7180,199
21.9038,202
22.0896,200
22.2753,213
22.4611,217
22.6468,192
22.8326,197
23.0183,192
23.2041,213
23.3898,216
23.5756,203
23.7614,207
23.9471,188
24.1329,191
24.3186,217
24.5044,212
24.6901,204
24.8759,191
25.0616,214
25.2474,202
25.4332,210
25.6189,193
25.8047,202
25.9904,199
26.1762,195
26.3619,207
26.5477,199
26.7335,177
26.9192,180
27.1050,192
27.2907,238
27.4765,186
27.6622,178
27.8480,167
28.0337,167
28.2195,182
28.4053,198
28.5910,182
28.7768,172
28.9625,165
29.1483,156
29.3340,147
29.5198,139
29.7055,150
29.8913,155
30.0771,147
30.2628,158
30.4486,236
30.6343,145
30.8201,177
31.0058,156
31.1916,132
31.3774,164
31.5631,124
31.7489,138
31.9346,141
32.1204,117
32.3061,142
32.4919,131
32.6776,146
32.8634,125
33.0492,122
33.2349,121
33.4207,105
33.6064,110
33.7922,120
33.9779,112
34.1637,126
34.3494,106
34.5352,126
34.7210,146
34.9067,147
35.0925,104
35.2782,111
35.4640,94
35.6497,113
35.8355,105
36.0213,95
36.2070,98
36.3928,100
36.5785,112
36.7643,96
36.9500,86
37.1358,85
37.3215,100
37.5073,115
37.6931,83
37.8788,97
38.0646,67
38.2503,72
38.4361,90
38.6218,77
38.8076,91
38.9933,80
39.1791,70
39.3649,82
39.5506,74
39.7364,83
39.9221,71
40.1079,72
40.2936,73
40.4794,87
40.6652,72
40.8509,79
41.0367,64
41.2224,77
41.4082,67
41.5939,55
41.7797,89
41.9654,78
42.1512,78
42.3370,71
42.5227,68
42.7085,67
42.8942,90
43.0800,67
43.2657,87
43.4515,95
43.6372,91
43.8230,67
44.0088,77
44.1945,73
44.3803,68
44.5660,83
44.7518,74
44.9375,69
45.1233,76
45.3091,70
45.4948,47
45.6806,74
45.8663,81
46.0521,65
46.2378,46
46.4236,64
46.6093,83
46.7951,69
46.9809,63
47.1666,56
47.3524,67
47.5381,72
47.7239,55
47.9096,68
48.0954,52
48.2811,55
48.4669,61
48.6527,57
48.8384,80
49.0242,84
49.2099,74
49.3957,58
49.5814,58
49.7672,55
49.9530,58
50.1387,63
50.3245,68
50.5102,68
50.6960,51
50.8817,62
51.0675,68
51.2532,78
51.4390,63
51.6248,61
51.8105,69
51.9963,77
52.1820,65
52.3678,52
52.5535,56
52.7393,78
52.9250,60
53.1108,63
53.2966,66
53.4823,69
53.6681,61
53.8538,54
54.0396,66
54.2253,46
54.4111,73
54.5969,59
54.7826,47
54.9684,57
55.1541,52
55.3399,58
55.5256,53
55.7114,51
55.8971,57
56.0829,51
56.2687,58
56.4544,57
56.6402,43
56.8259,67
57.0117,52
57.1974,63
57.3832,58
57.5689,69
57.7547,64
57.9405,66
58.1262,56
58.3120,58
58.4977,61
58.6835,71
58.8692,49
59.0550,53
59.2408,62
59.4265,54
59.6123,67
59.7980,62
59.9838,57
60.0024,47

File: ML_20220720_5_SJD_4_LaB6-1min.uxd
; (content of file Y:\Sam\Apurva-07-20-2022\puck4\ML_20220718_5_SJD_0_LaB6-1min.raw)
_FILEVERSION = 3
_SAMPLE = ML_20220718_5_SJD_0_LaB6-1mi
_+SAMPLE =
_SITE = USA
_USER = Administrator
_GONIOMETER_CODE = 20
; Goniometer : D8 theta/2theta, stage : Unknown
_ATTACHMENTS_CODE = 0
_GONIOMETER_RADIUS = 200.5
_FIXED_DIVSLIT = 0.6
_FIXED_SAMPLESLIT = 0
_SOLLER_SLITS = 2
_FIXED_DETSLIT = 9.55
_MONOCHROMATOR = 0
; Incident beam monochromator : None
_SOLLER_SLITS_2 = N
_THIN_FILM = N
_BETA_FILTER = Y
_FIXED_ANTISLIT = 5.89
_ANALYZER_CODE = 0
; Received beam analyzer : None
_DATEMEASURED = "21-Jul-2022 03:08:03"
_WL_UNIT = A
_WL1 = 1.5406
_WL2 = 1.54439
_WL3 = 1.39222
_WLRATIO = 0.5
_ANODE = Cu
_V4_INF_CREATOR = XRDWizard
_V4_INF_CREATOR_VERSION = V2.9.0.22
_V4_INF_WIZARD_VERSION = V2.9.0.22
_V4_INF_WIZARD_ADDINS = V2.9.0.22
_V4_INF_WIZARD_DOCTYPE = XRD
_V4_INF_OSUSER = McQueenLab
_V4_INF_USER = Administrator
_V4_INF_SITE = USA
_V4_INF_SAMPLEID = ML_20220718_5_SJD_0_LaB6-1mi

; Data for range 1
_DRIVE = COUPLED
_STEPTIME = 4.23
_STEPSIZE = 0.0185756
_STEPMODE = C
_START = 5
_THETA = 2.5
_2THETA = 5
_KHI = 0
_PHI = 0
_X = 0
_Y = 0
_Z = 0
_DETECTOR = 5
; Detector type : Unknown
_DETECTORSLIT = unkn
_AUX1 = 0
_AUX2 = 0
_AUX3 = 0
_TIMESTARTED = 15
_TEMP_RATE = -1
_TEMP_DELAY = -1
_KV = 40
_MA = 40
_RANGE_WL = 1.5406
_3DPLANE = 0
_V4_ADDITIONALDETECTOR = 257
_V4_PSD2THETA = 3.3736
_V4_PSDCHANNEL1 = 0
_V4_PSDAPERTURE = 12.68
_V4_PSDTYPE = 5
_V4_PSDFIXED = 0
_V4_COUNTERS_MASK = 4096
_V4_DRIVES_MASK = 0
_V4_ENCODERS_MASK = 0
_2THETACOUNTS = 1
; 2THETA  PSD
   5.0000         88
   5.1858         99
   5.3715         77
   5.5573         79
   5.7430         80
   5.9288         75
   6.1145         60
   6.3003         68
   6.4860         62
   6.6718         55
   6.8576         57
   7.0433         70
   7.2291         48
   7.4148         62
   7.6006         69
   7.7863         65
   7.9721         64
   8.1579         69
   8.3436         70
   8.5294         67
   8.7151         65
   8.9009         74
   9.0866         81
   9.2724         83
   9.4581         64
   9.6439         97
   9.8297         85
  10.0154         76
  10.2012         83
  10.3869        100
  10.5727         91
  10.7584         89
  10.9442         90
  11.1299         81
  11.3157         83
  11.5015         85
  11.6872         76
  11.8730         96
  12.0587         83
  12.2445         73
  12.4302         72
  12.6160         80
  12.8018         71
  12.9875         72
  13.1733         74
  13.3590         64
  13.5448         65
  13.7305         72
  13.9163         57
  14.1020         69
  14.2878         61
  14.4736         63
  14.6593         56
  14.8451         68
  15.0308         59
  15.2166         65
  15.4023         65
  15.5881         51
  15.7738         62
  15.9596         65
  16.1454         68
  16.3311         62
  16.5169         58
  16.7026         59
  16.8884         67
  17.0741         70
  17.2599         66
  17.4457         54
  17.6314         60
  17.8172         59
  18.0029         57
  18.1887         57
  18.3744         52
  18.5602         57
  18.7459         55
  18.9317         70
  19.1175         65
  19.3032         66
  19.4890         73
  19.6747         71
  19.8605         56
  20.0462         55
  20.2320         52
  20.4177         62
  20.6035         64
  20.7893         76
  20.9750         58
  21.1608         92
  21.3465        198
  21.5323         79
  21.7180         81
  21.9038         65
  22.0896         70
  22.2753         61
  22.4611         72
  22.6468         60
  22.8326         69
  23.0183         82
  23.2041         79
  23.3898         73
  23.5756         74
  23.7614         72
  23.9471         68
  24.1329         77
  24.3186         72
  24.5044         79
  24.6901         71
  24.8759         78
  25.0616         68
  25.2474         82
  25.4332         72
  25.6189         68
  25.8047         80
  25.9904         46
  26.1762         80
  26.3619         71
  26.5477         69
  26.7335         63
  26.9192         79
  27.1050         77
  27.2907         75
  27.4765         72
  27.6622         62
  27.8480         60
  28.0337         64
  28.2195         54
  28.4053         67
  28.5910         62
  28.7768         52
  28.9625         54
  29.1483         61
  29.3340         57
  29.5198         42
  29.7055         51
  29.8913         54
  30.0771         55
  30.2628         60
  30.4486         77
  30.6343         61
  30.8201         64
  31.0058         56
  31.1916         39
  31.3774         37
  31.5631         50
  31.7489         55
  31.9346         52
  32.1204         45
  32.3061         44
  32.4919         63
  32.6776         54
  32.8634         49
  33.0492         53
  33.2349         49
  33.4207         50
  33.6064         50
  33.7922         39
  33.9779         34
  34.1637         35
  34.3494         35
  34.5352         37
  34.7210         54
  34.9067         49
  35.0925         41
  35.2782         46
  35.4640         27
  35.6497         36
  35.8355         35
  36.0213         37
  36.2070         32
  36.3928         40
  36.5785         36
  36.7643         41
  36.9500         34
  37.1358         34
  37.3215         46
  37.5073         49
  37.6931         21
  37.8788         27
  38.0646         34
  38.2503         38
  38.4361         40
  38.6218         27
  38.8076         38
  38.9933         34
  39.1791         28
  39.3649         31
  39.5506         26
  39.7364         37
  39.9221         35
  40.1079         23
  40.2936         38
  40.4794         37
  40.6652         23
  40.8509         24
  41.0367         29
  41.2224         19
  41.4082         26
  41.5939         29
  41.7797         27
  41.9654         27
  42.1512         32
  42.3370         19
  42.5227         21
  42.7085         21
  42.8942         25
  43.0800         18
  43.2657         34
  43.4515         47
  43.6372         30
  43.8230         24
  44.0088         26
  44.1945         31
  44.3803         38
  44.5660         34
  44.7518         28
  44.9375         34
  45.1233         31
  45.3091         29
  45.4948         26
  45.6806         21
  45.8663         23
  46.0521         31
  46.2378         27
  46.4236         31
  46.6093         25
  46.7951         20
  46.9809         31
  47.1666         20
  47.3524         16
  47.5381         17
  47.7239         32
  47.9096         19
  48.0954         19
  48.2811         21
  48.4669         17
  48.6527         30
  48.8384         21
  49.0242         30
  49.2099         28
  49.3957         28
  49.5814         16
  49.7672         23
  49.9530         25
  50.1387         43
  50.3245         20
  50.5102         20
  50.6960         27
  50.8817         20
  51.0675         24
  51.2532         16
  51.4390         28
  51.6248         22
  51.8105         28
  51.9963         24
  52.1820         33
  52.3678         19
  52.5535         35
  52.7393         25
  52.9250         18
  53.1108         30
  53.2966         20
  53.4823         20
  53.6681         17
  53.8538         15
  54.0396         25
  54.2253         18
  54.4111         27
  54.5969         20
  54.7826         23
  54.9684         24
  55.1541         18
  55.3399         25
  55.5256         17
  55.7114         21
  55.8971         26
  56.0829         22
  56.2687         32
  56.4544         19
  56.6402         18
  56.8259         18
  57.0117         18
  57.1974         24
  57.3832         11
  57.5689         11
  57.7547         23
  57.9405         24
  58.1262         24
  58.3120         15
  58.4977         22
  58.6835         17
  58.8692         21
  59.0550         19
  59.2408         22
  59.4265         17
  59.6123         18
  59.7980         16
  59.9838         21
  60.0024         29

File: ML_20220720_5_SJD_4_LaB6-4min.uxd
; (content of file Y:\Sam\Apurva-07-20-2022\puck2\ML_20220720_5_SJD_0_LaB6-4min.raw)
_FILEVERSION = 3
_SAMPLE = ML_20220720_5_SJD_0_LaB6-4min
_+SAMPLE =
_SITE = USA
_USER = Administrator
_GONIOMETER_CODE = 20
; Goniometer : D8 theta/2theta, stage : Unknown
_ATTACHMENTS_CODE = 0
_GONIOMETER_RADIUS = 200.5
_FIXED_DIVSLIT = 0.6
_FIXED_SAMPLESLIT = 0
_SOLLER_SLITS = 2
_FIXED_DETSLIT = 9.55
_MONOCHROMATOR = 0
; Incident beam monochromator : None
_SOLLER_SLITS_2 = N
_THIN_FILM = N
_BETA_FILTER = Y
_FIXED_ANTISLIT = 5.89
_ANALYZER_CODE = 0
; Received beam analyzer : None
_DATEMEASURED = "25-Jul-2022 17:42:33"
_WL_UNIT = A
_WL1 = 1.5406
_WL2 = 1.54439
_WL3 = 1.39222
_WLRATIO = 0.5
_ANODE = Cu
_V4_INF_CREATOR = XRDWizard
_V4_INF_CREATOR_VERSION = V2.9.0.22
_V4_INF_WIZARD_VERSION = V2.9.0.22
_V4_INF_WIZARD_ADDINS = V2.9.0.22
_V4_INF_WIZARD_DOCTYPE = XRD
_V4_INF_OSUSER = McQueenLab
_V4_INF_USER = Administrator
_V4_INF_SITE = USA
_V4_INF_SAMPLEID = ML_20220720_5_SJD_0_LaB6-4min

; Data for range 1
_DRIVE = COUPLED
_STEPTIME = 11.28
_STEPSIZE = 0.0185756
_STEPMODE = C
_START = 5
_THETA = 2.5
_2THETA = 5
_KHI = 0
_PHI = 0
_X = 0
_Y = 0
_Z = 0
_DETECTOR = 5
; Detector type : Unknown
_DETECTORSLIT = unkn
_AUX1 = 0
_AUX2 = 0
_AUX3 = 0
_TIMESTARTED = 15
_TEMP_RATE = -1
_TEMP_DELAY = -1
_KV = 40
_MA = 40
_RANGE_WL = 1.5406
_3DPLANE = 0
_V4_ADDITIONALDETECTOR = 257
_V4_PSD2THETA = 3.3882
_V4_PSDCHANNEL1 = 0
_V4_PSDAPERTURE = 12.68
_V4_PSDTYPE = 5
_V4_PSDFIXED = 0
_V4_COUNTERS_MASK = 4096
_V4_DRIVES_MASK = 0
_V4_ENCODERS_MASK = 0
_2THETACOUNTS = 1
; 2THETA  PSD
   5.0000        277
   5.1858        251
   5.3715        234
   5.5573        250
   5.7430        228
   5.9288        164
   6.1145        185
   6.3003        161
   6.4860        161
   6.6718        163
   6.8576        177
   7.0433        155
   7.2291        168
   7.4148        165
   7.6006        175
   7.7863        163
   7.9721        162
   8.1579        214
   8.3436        211
   8.5294        203
   8.7151        202
   8.9009        209
   9.0866        203
   9.2724        223
   9.4581        215
   9.6439        197
   9.8297        220
  10.0154        251
  10.2012        234
  10.3869        255
  10.5727        220
  10.7584        238
  10.9442        245
  11.1299        243
  11.3157        227
  11.5015        245
  11.6872        266
  11.8730        227
  12.0587        224
  12.2445        213
  12.4302        232
  12.6160        225
  12.8018        242
  12.9875        209
  13.1733        231
  13.3590        208
  13.5448        201
  13.7305        184
  13.9163        204
  14.1020        187
  14.2878        175
  14.4736        172
  14.6593        172
  14.8451        162
  15.0308        170
  15.2166        179
  15.4023        175
  15.5881        160
  15.7738        181
  15.9596        156
  16.1454        163
  16.3311        162
  16.5169        153
  16.7026        151
  16.8884        153
  17.0741        169
  17.2599        165
  17.4457        167
  17.6314        177
  17.8172        162
  18.0029        165
  18.1887        149
  18.3744        160
  18.5602        193
  18.7459        189
  18.9317        164
  19.1175        181
  19.3032        188
  19.4890        177
  19.6747        162
  19.8605        192
  20.0462        177
  20.2320        190
  20.4177        158
  20.6035        161
  20.7893        174
  20.9750        203
  21.1608        229
  21.3465        509
  21.5323        204
  21.7180        187
  21.9038        209
  22.0896        206
  22.2753        194
  22.4611        231
  22.6468        216
  22.8326        185
  23.0183        207
  23.2041        189
  23.3898        224
  23.5756        203
  23.7614        204
  23.9471        189
  24.1329        200
  24.3186        208
  24.5044        197
  24.6901        220
  24.8759        187
  25.0616        168
  25.2474        192
  25.4332        188
  25.6189        182
  25.8047        201
  25.9904        215
  26.1762        201
  26.3619        205
  26.5477        222
  26.7335        172
  26.9192        185
  27.1050        202
  27.2907        206
  27.4765        163
  27.6622        174
  27.8480        179
  28.0337        177
  28.2195        160
  28.4053        159
  28.5910        162
  28.7768        160
  28.9625        172
  29.1483        151
  29.3340        170
  29.5198        171
  29.7055        147
  29.8913        152
  30.0771        180
  30.2628        183
  30.4486        235
  30.6343        172
  30.8201        146
  31.0058        165
  31.1916        128
  31.3774        133
  31.5631        139
  31.7489        127
  31.9346        151
  32.1204        141
  32.3061        132
  32.4919        156
  32.6776        121
  32.8634        136
  33.0492        145
  33.2349        115
  33.4207        129
  33.6064        106
  33.7922        101
  33.9779        111
  34.1637        118
  34.3494        108
  34.5352        136
  34.7210        142
  34.9067        115
  35.0925        107
  35.2782         84
  35.4640        117
  35.6497        126
  35.8355        110
  36.0213         97
  36.2070        113
  36.3928         88
  36.5785         87
  36.7643        109
  36.9500        117
  37.1358         98
  37.3215        112
  37.5073        111
  37.6931         93
  37.8788         73
  38.0646         84
  38.2503         85
  38.4361         87
  38.6218         89
  38.8076         74
  38.9933         81
  39.1791         88
  39.3649         93
  39.5506         83
  39.7364         94
  39.9221         72
  40.1079         81
  40.2936         75
  40.4794         70
  40.6652         71
  40.8509         77
  41.0367         98
  41.2224         81
  41.4082         88
  41.5939         89
  41.7797         69
  41.9654         80
  42.1512         94
  42.3370         75
  42.5227         71
  42.7085         76
  42.8942         73
  43.0800         82
  43.2657         89
  43.4515         69
  43.6372        110
  43.8230         76
  44.0088         75
  44.1945         75
  44.3803         74
  44.5660         88
  44.7518         94
  44.9375         78
  45.1233         70
  45.3091         58
  45.4948         70
  45.6806         65
  45.8663         76
  46.0521         69
  46.2378         68
  46.4236         77
  46.6093         63
  46.7951         62
  46.9809         70
  47.1666         64
  47.3524         68
  47.5381         69
  47.7239         49
  47.9096         73
  48.0954         52
  48.2811         62
  48.4669         69
  48.6527         59
  48.8384         60
  49.0242         74
  49.2099         69
  49.3957         67
  49.5814         67
  49.7672         65
  49.9530         51
  50.1387         64
  50.3245         62
  50.5102         55
  50.6960         70
  50.8817         49
  51.0675         63
  51.2532         70
  51.4390         70
  51.6248         50
  51.8105         59
  51.9963         58
  52.1820         56
  52.3678         46
  52.5535         59
  52.7393         34
  52.9250         60
  53.1108         46
  53.2966         60
  53.4823         67
  53.6681         55
  53.8538         72
  54.0396         51
  54.2253         61
  54.4111         52
  54.5969         53
  54.7826         53
  54.9684         57
  55.1541         68
  55.3399         53
  55.5256         45
  55.7114         48
  55.8971         52
  56.0829         58
  56.2687         56
  56.4544         60
  56.6402         60
  56.8259         50
  57.0117         54
  57.1974         47
  57.3832         65
  57.5689         48
  57.7547         58
  57.9405         51
  58.1262         51
  58.3120         60
  58.4977         52
  58.6835         58
  58.8692         59
  59.0550         67
  59.2408         58
  59.4265         59
  59.6123         69
  59.7980         58
  59.9838         49
  60.0024         52

File: ML_20220720_6_SJD_4_LaB6-1min.csv
;,2THETA,
5.0000,89
5.1858,97
5.3715,90
5.5573,108
5.7430,64
5.9288,67
6.1145,74
6.3003,51
6.4860,64
6.6718,72
6.8576,56
7.0433,68
7.2291,54
7.4148,59
7.6006,73
7.7863,65
7.9721,63
8.1579,78
8.3436,72
8.5294,73
8.7151,73
8.9009,71
9.0866,81
9.2724,71
9.4581,76
9.6439,72
9.8297,90
10.0154,91
10.2012,66
10.3869,99
10.5727,80
10.7584,89
10.9442,76
11.1299,88
11.3157,68
11.5015,73
11.6872,77
11.8730,73
12.0587,75
12.2445,91
12.4302,61
12.6160,77
12.8018,86
12.9875,67
13.1733,64
13.3590,73
13.5448,77
13.7305,59
13.9163,50
14.1020,63
14.2878,62
14.4736,57
14.6593,75
14.8451,64
15.0308,53
15.2166,65
15.4023,60
15.5881,66
15.7738,67
15.9596,50
16.1454,68
16.3311,62
16.5169,67
16.7026,67
16.8884,53
17.0741,71
17.2599,60
17.4457,61
17.6314,51
17.8172,46
18.0029,60
18.1887,54
18.3744,72
18.5602,53
18.7459,63
18.9317,52
19.1175,46
19.3032,67
19.4890,76
19.6747,71
19.8605,67
20.0462,71
20.2320,57
20.4177,77
20.6035,78
20.7893,58
20.9750,63
21.1608,88
21.3465,163
21.5323,75
21.7180,76
21.9038,83
22.0896,80
22.2753,69
22.4611,60
22.6468,79
22.8326,76
23.0183,84
23.2041,68
23.3898,74
23.5756,55
23.7614,63
23.9471,80
24.1329,74
24.3186,77
24.5044,85
24.6901,61
24.8759,83
25.0616,74
25.2474,63
25.4332,67
25.6189,68
25.8047,63
25.9904,56
26.1762,77
26.3619,73
26.5477,57
26.7335,66
26.9192,76
27.1050,69
27.2907,65
27.4765,56
27.6622,57
27.8480,60
28.0337,62
28.2195,55
28.4053,54
28.5910,68
28.7768,67
28.9625,50
29.1483,60
29.3340,55
29.5198,67
29.7055,65
29.8913,65
30.0771,51
30.2628,56
30.4486,95
30.6343,60
30.8201,56
31.0058,53
31.1916,57
31.3774,49
31.5631,44
31.7489,38
31.9346,40
32.1204,38
32.3061,41
32.4919,63
32.6776,36
32.8634,51
33.0492,53
33.2349,60
33.4207,47
33.6064,51
33.7922,48
33.9779,38
34.1637,38
34.3494,37
34.5352,43
34.7210,65
34.9067,46
35.0925,34
35.2782,32
35.4640,31
35.6497,41
35.8355,37
36.0213,30
36.2070,27
36.3928,38
36.5785,27
36.7643,43
36.9500,37
37.1358,41
37.3215,33
37.5073,39
37.6931,27
37.8788,29
38.0646,24
38.2503,24
38.4361,32
38.6218,30
38.8076,35
38.9933,27
39.1791,35
39.3649,51
39.5506,28
39.7364,18
39.9221,38
40.1079,29
40.2936,27
40.4794,30
40.6652,20
40.8509,29
41.0367,28
41.2224,21
41.4082,22
41.5939,26
41.7797,24
41.9654,20
42.1512,22
42.3370,22
42.5227,27
42.7085,18
42.8942,25
43.0800,30
43.2657,42
43.4515,38
43.6372,37
43.8230,34
44.0088,25
44.1945,30
44.3803,31
44.5660,24
44.7518,24
44.9375,33
45.1233,31
45.3091,14
45.4948,19
45.6806,27
45.8663,24
46.0521,23
46.2378,23
46.4236,18
46.6093,21
46.7951,23
46.9809,22
47.1666,24
47.3524,23
47.5381,31
47.7239,19
47.9096,28
48.0954,31
48.2811,25
48.4669,25
48.6527,25
48.8384,18
49.0242,29
49.2099,30
49.3957,29
49.5814,25
49.7672,19
49.9530,31
50.1387,20
50.3245,25
50.5102,27
50.6960,14
50.8817,23
51.0675,21
51.2532,24
51.4390,28
51.6248,18
51.8105,19
51.9963,23
52.1820,22
52.3678,21
52.5535,18
52.7393,31
52.9250,15
53.1108,27
53.2966,19
53.4823,14
53.6681,21
53.8538,22
54.0396,24
54.2253,24
54.4111,20
54.5969,14
54.7826,17
54.9684,24
55.1541,20
55.3399,21
55.5256,23
55.7114,10
55.8971,22
56.0829,22
56.2687,27
56.4544,21
56.6402,21
56.8259,25
57.0117,16
57.1974,18
57.3832,23
57.5689,21
57.7547,15
57.9405,25
58.1262,17
58.3120,22
58.4977,22
58.6835,27
58.8692,19
59.0550,17
59.2408,19
59.4265,19
59.6123,25
59.7980,16
59.9838,12
60.0024,19