Folder: xrd_clustering/notebooks/data/xrd_data (part 4)

File: ML_20220718_17_SJD_4_LaB6-2min.uxd
; (content of file Y:\Sam\Apurva-07-20-2022\puck4\ML_20220718_17_SJD_0_LaB6-2min.raw)
_FILEVERSION = 3
_SAMPLE = ML_20220718_17_SJD_0_LaB6-2min
_+SAMPLE =
_SITE = USA
_USER = Administrator
_GONIOMETER_CODE = 20
; Goniometer : D8 theta/2theta, stage : Unknown
_ATTACHMENTS_CODE = 0
_GONIOMETER_RADIUS = 200.5
_FIXED_DIVSLIT = 0.6
_FIXED_SAMPLESLIT = 0
_SOLLER_SLITS = 2
_FIXED_DETSLIT = 9.55
_MONOCHROMATOR = 0
; Incident beam monochromator : None
_SOLLER_SLITS_2 = N
_THIN_FILM = N
_BETA_FILTER = Y
_FIXED_ANTISLIT = 5.89
_ANALYZER_CODE = 0
; Received beam analyzer : None
_DATEMEASURED = "26-Jul-2022 09:44:42"
_WL_UNIT = A
_WL1 = 1.5406
_WL2 = 1.54439
_WL3 = 1.39222
_WLRATIO = 0.5
_ANODE = Cu
_V4_INF_CREATOR = XRDWizard
_V4_INF_CREATOR_VERSION = V2.9.0.22
_V4_INF_WIZARD_VERSION = V2.9.0.22
_V4_INF_WIZARD_ADDINS = V2.9.0.22
_V4_INF_WIZARD_DOCTYPE = XRD
_V4_INF_OSUSER = McQueenLab
_V4_INF_USER = Administrator
_V4_INF_SITE = USA
_V4_INF_SAMPLEID = ML_20220718_17_SJD_0_LaB6-2min

; Data for range 1
_DRIVE = COUPLED
_STEPTIME = 5.64
_STEPSIZE = 0.0185756
_STEPMODE = C
_START = 5
_THETA = 2.5
_2THETA = 5
_KHI = 0
_PHI = 0
_X = 0
_Y = 0
_Z = 0
_DETECTOR = 5
; Detector type : Unknown
_DETECTORSLIT = unkn
_AUX1 = 0
_AUX2 = 0
_AUX3 = 0
_TIMESTARTED = 15
_TEMP_RATE = -1
_TEMP_DELAY = -1
_KV = 40
_MA = 40
_RANGE_WL = 1.5406
_3DPLANE = 0
_V4_ADDITIONALDETECTOR = 257
_V4_PSD2THETA = 3.3708
_V4_PSDCHANNEL1 = 0
_V4_PSDAPERTURE = 12.68
_V4_PSDTYPE = 5
_V4_PSDFIXED = 0
_V4_COUNTERS_MASK = 4096
_V4_DRIVES_MASK = 0
_V4_ENCODERS_MASK = 0
_2THETACOUNTS = 1
; 2THETA  PSD
   5.0000        128
   5.1858        118
   5.3715        106
   5.5573         94
   5.7430        110
   5.9288         93
   6.1145        101
   6.3003        111
   6.4860         88
   6.6718         81
   6.8576         77
   7.0433         89
   7.2291         86
   7.4148         79
   7.6006         69
   7.7863         79
   7.9721         89
   8.1579        100
   8.3436        108
   8.5294        107
   8.7151        106
   8.9009        126
   9.0866         84
   9.2724        112
   9.4581        102
   9.6439         94
   9.8297        119
  10.0154        108
  10.2012        105
  10.3869        112
  10.5727        130
  10.7584        122
  10.9442        101
  11.1299        117
  11.3157        101
  11.5015        112
  11.6872        112
  11.8730        122
  12.0587        103
  12.2445        144
  12.4302        104
  12.6160        104
  12.8018        102
  12.9875        118
  13.1733        108
  13.3590        105
  13.5448         99
  13.7305        105
  13.9163         87
  14.1020         92
  14.2878         80
  14.4736         69
  14.6593         76
  14.8451         94
  15.0308         78
  15.2166         87
  15.4023         81
  15.5881         81
  15.7738         70
  15.9596         81
  16.1454         76
  16.3311         89
  16.5169         92
  16.7026         77
  16.8884         78
  17.0741         76
  17.2599         74
  17.4457         67
  17.6314         80
  17.8172         85
  18.0029         63
  18.1887         90
  18.3744         88
  18.5602         82
  18.7459         89
  18.9317         97
  19.1175         72
  19.3032         71
  19.4890         88
  19.6747         84
  19.8605         75
  20.0462         78
  20.2320         73
  20.4177        105
  20.6035         96
  20.7893         99
  20.9750         88
  21.1608        129
  21.3465        263
  21.5323         84
  21.7180         97
  21.9038         95
  22.0896         91
  22.2753         97
  22.4611         92
  22.6468        100
  22.8326         84
  23.0183         90
  23.2041        100
  23.3898        105
  23.5756         75
  23.7614        104
  23.9471         97
  24.1329        103
  24.3186        110
  24.5044        104
  24.6901        119
  24.8759         99
  25.0616        109
  25.2474        106
  25.4332         90
  25.6189         98
  25.8047         89
  25.9904         97
  26.1762        104
  26.3619         87
  26.5477         90
  26.7335         96
  26.9192         88
  27.1050         76
  27.2907        106
  27.4765        101
  27.6622         74
  27.8480         69
  28.0337         84
  28.2195         79
  28.4053         80
  28.5910         76
  28.7768         81
  28.9625         88
  29.1483         76
  29.3340         87
  29.5198         71
  29.7055         86
  29.8913         70
  30.0771         81
  30.2628         91
  30.4486        112
  30.6343         91
  30.8201         73
  31.0058         76
  31.1916         63
  31.3774         70
  31.5631         70
  31.7489         67
  31.9346         70
  32.1204         59
  32.3061         64
  32.4919         72
  32.6776         61
  32.8634         63
  33.0492         57
  33.2349         55
  33.4207         55
  33.6064         53
  33.7922         57
  33.9779         44
  34.1637         62
  34.3494         59
  34.5352         54
  34.7210         79
  34.9067         63
  35.0925         65
  35.2782         56
  35.4640         41
  35.6497         59
  35.8355         44
  36.0213         43
  36.2070         46
  36.3928         44
  36.5785         42
  36.7643         42
  36.9500         34
  37.1358         52
  37.3215         48
  37.5073         53
  37.6931         52
  37.8788         45
  38.0646         36
  38.2503         46
  38.4361         47
  38.6218         46
  38.8076         40
  38.9933         42
  39.1791         40
  39.3649         40
  39.5506         40
  39.7364         32
  39.9221         47
  40.1079         48
  40.2936         44
  40.4794         40
  40.6652         35
  40.8509         35
  41.0367         43
  41.2224         44
  41.4082         47
  41.5939         36
  41.7797         34
  41.9654         34
  42.1512         34
  42.3370         34
  42.5227         37
  42.7085         42
  42.8942         33
  43.0800         46
  43.2657         54
  43.4515         52
  43.6372         61
  43.8230         35
  44.0088         41
  44.1945         26
  44.3803         44
  44.5660         38
  44.7518         43
  44.9375         52
  45.1233         35
  45.3091         23
  45.4948         29
  45.6806         34
  45.8663         33
  46.0521         31
  46.2378         39
  46.4236         26
  46.6093         23
  46.7951         35
  46.9809         26
  47.1666         35
  47.3524         20
  47.5381         33
  47.7239         41
  47.9096         22
  48.0954         35
  48.2811         28
  48.4669         30
  48.6527         32
  48.8384         36
  49.0242         36
  49.2099         20
  49.3957         33
  49.5814         39
  49.7672         21
  49.9530         36
  50.1387         30
  50.3245         25
  50.5102         28
  50.6960         26
  50.8817         32
  51.0675         31
  51.2532         35
  51.4390         35
  51.6248         35
  51.8105         31
  51.9963         22
  52.1820         27
  52.3678         25
  52.5535         42
  52.7393         19
  52.9250         30
  53.1108         26
  53.2966         31
  53.4823         41
  53.6681         22
  53.8538         20
  54.0396         37
  54.2253         32
  54.4111         22
  54.5969         28
  54.7826         26
  54.9684         35
  55.1541         27
  55.3399         27
  55.5256         35
  55.7114         30
  55.8971         19
  56.0829         29
  56.2687         30
  56.4544         25
  56.6402         20
  56.8259         29
  57.0117         34
  57.1974         29
  57.3832         30
  57.5689         31
  57.7547         23
  57.9405         21
  58.1262         26
  58.3120         33
  58.4977         25
  58.6835         28
  58.8692         28
  59.0550         25
  59.2408         32
  59.4265         27
  59.6123         30
  59.7980         29
  59.9838         27
  60.0024         42

File: ML_20220718_18_SJD_4_LaB6-2min.csv
;,2THETA,
5.0000,139
5.1858,122
5.3715,121
5.5573,106
5.7430,105
5.9288,105
6.1145,90
6.3003,81
6.4860,85
6.6718,87
6.8576,78
7.0433,93
7.2291,79
7.4148,82
7.6006,85
7.7863,91
7.9721,101
8.1579,100
8.3436,99
8.5294,121
8.7151,96
8.9009,93
9.0866,92
9.2724,126
9.4581,100
9.6439,132
9.8297,115
10.0154,136
10.2012,91
10.3869,126
10.5727,127
10.7584,125
10.9442,125
11.1299,123
11.3157,114
11.5015,125
11.6872,123
11.8730,126
12.0587,111
12.2445,120
12.4302,119
12.6160,104
12.8018,109
12.9875,96
13.1733,107
13.3590,111
13.5448,94
13.7305,94
13.9163,103
14.1020,108
14.2878,75
14.4736,93
14.6593,62
14.8451,71
15.0308,87
15.2166,85
15.4023,83
15.5881,88
15.7738,82
15.9596,93
16.1454,74
16.3311,78
16.5169,86
16.7026,63
16.8884,76
17.0741,92
17.2599,82
17.4457,74
17.6314,62
17.8172,87
18.0029,70
18.1887,90
18.3744,74
18.5602,72
18.7459,92
18.9317,79
19.1175,77
19.3032,81
19.4890,95
19.6747,88
19.8605,97
20.0462,97
20.2320,95
20.4177,93
20.6035,102
20.7893,79
20.9750,101
21.1608,104
21.3465,240
21.5323,90
21.7180,98
21.9038,93
22.0896,99
22.2753,90
22.4611,98
22.6468,93
22.8326,96
23.0183,97
23.2041,101
23.3898,88
23.5756,91
23.7614,101
23.9471,102
24.1329,113
24.3186,109
24.5044,100
24.6901,108
24.8759,94
25.0616,91
25.2474,90
25.4332,76
25.6189,104
25.8047,99
25.9904,99
26.1762,86
26.3619,100
26.5477,92
26.7335,84
26.9192,95
27.1050,107
27.2907,114
27.4765,95
27.6622,92
27.8480,85
28.0337,71
28.2195,106
28.4053,91
28.5910,89
28.7768,83
28.9625,85
29.1483,88
29.3340,82
29.5198,69
29.7055,78
29.8913,80
30.0771,67
30.2628,84
30.4486,146
30.6343,65
30.8201,70
31.0058,86
31.1916,63
31.3774,77
31.5631,95
31.7489,78
31.9346,72
32.1204,75
32.3061,61
32.4919,85
32.6776,58
32.8634,54
33.0492,67
33.2349,73
33.4207,53
33.6064,49
33.7922,58
33.9779,64
34.1637,57
34.3494,67
34.5352,73
34.7210,63
34.9067,56
35.0925,55
35.2782,50
35.4640,54
35.6497,51
35.8355,48
36.0213,45
36.2070,41
36.3928,42
36.5785,40
36.7643,47
36.9500,55
37.1358,50
37.3215,47
37.5073,47
37.6931,51
37.8788,52
38.0646,49
38.2503,44
38.4361,41
38.6218,37
38.8076,41
38.9933,43
39.1791,40
39.3649,43
39.5506,37
39.7364,43
39.9221,37
40.1079,43
40.2936,41
40.4794,34
40.6652,30
40.8509,42
41.0367,39
41.2224,44
41.4082,37
41.5939,39
41.7797,42
41.9654,45
42.1512,38
42.3370,31
42.5227,38
42.7085,33
42.8942,41
43.0800,37
43.2657,37
43.4515,46
43.6372,44
43.8230,39
44.0088,48
44.1945,33
44.3803,37
44.5660,44
44.7518,35
44.9375,41
45.1233,34
45.3091,36
45.4948,43
45.6806,39
45.8663,41
46.0521,30
46.2378,34
46.4236,25
46.6093,34
46.7951,33
46.9809,34
47.1666,27
47.3524,24
47.5381,23
47.7239,30
47.9096,27
48.0954,37
48.2811,32
48.4669,25
48.6527,31
48.8384,31
49.0242,42
49.2099,24
49.3957,32
49.5814,37
49.7672,31
49.9530,28
50.1387,31
50.3245,35
50.5102,34
50.6960,33
50.8817,37
51.0675,19
51.2532,30
51.4390,40
51.6248,31
51.8105,28
51.9963,29
52.1820,27
52.3678,30
52.5535,28
52.7393,25
52.9250,36
53.1108,22
53.2966,31
53.4823,28
53.6681,45
53.8538,25
54.0396,30
54.2253,20
54.4111,30
54.5969,25
54.7826,22
54.9684,24
55.1541,31
55.3399,22
55.5256,31
55.7114,26
55.8971,28
56.0829,33
56.2687,32
56.4544,21
56.6402,30
56.8259,23
57.0117,26
57.1974,25
57.3832,27
57.5689,36
57.7547,22
57.9405,26
58.1262,30
58.3120,27
58.4977,36
58.6835,26
58.8692,22
59.0550,21
59.2408,19
59.4265,39
59.6123,31
59.7980,24
59.9838,27
60.0024,28

File: ML_20220718_19_SJD_4_LaB6-2min.uxd
; (content of file Y:\Sam\Apurva-07-20-2022\puck4\ML_20220718_19_SJD_0_LaB6-2min.raw)
_FILEVERSION = 3
_SAMPLE = ML_20220718_19_SJD_0_LaB6-2min
_+SAMPLE =
_SITE = USA
_USER = Administrator
_GONIOMETER_CODE = 20
; Goniometer : D8 theta/2theta, stage : Unknown
_ATTACHMENTS_CODE = 0
_GONIOMETER_RADIUS = 200.5
_FIXED_DIVSLIT = 0.6
_FIXED_SAMPLESLIT = 0
_SOLLER_SLITS = 2
_FIXED_DETSLIT = 9.55
_MONOCHROMATOR = 0
; Incident beam monochromator : None
_SOLLER_SLITS_2 = N
_THIN_FILM = N
_BETA_FILTER = Y
_FIXED_ANTISLIT = 5.89
_ANALYZER_CODE = 0
; Received beam analyzer : None
_DATEMEASURED = "26-Jul-2022 09:39:54"
_WL_UNIT = A
_WL1 = 1.5406
_WL2 = 1.54439
_WL3 = 1.39222
_WLRATIO = 0.5
_ANODE = Cu
_V4_INF_CREATOR = XRDWizard
_V4_INF_CREATOR_VERSION = V2.9.0.22
_V4_INF_WIZARD_VERSION = V2.9.0.22
_V4_INF_WIZARD_ADDINS = V2.9.0.22
_V4_INF_WIZARD_DOCTYPE = XRD
_V4_INF_OSUSER = McQueenLab
_V4_INF_USER = Administrator
_V4_INF_SITE = USA
_V4_INF_SAMPLEID = ML_20220718_19_SJD_0_LaB6-2min

; Data for range 1
_DRIVE = COUPLED
_STEPTIME = 5.64
_STEPSIZE = 0.0185756
_STEPMODE = C
_START = 5
_THETA = 2.5
_2THETA = 5
_KHI = 0
_PHI = 0
_X = 0
_Y = 0
_Z = 0
_DETECTOR = 5
; Detector type : Unknown
_DETECTORSLIT = unkn
_AUX1 = 0
_AUX2 = 0
_AUX3 = 0
_TIMESTARTED = 14
_TEMP_RATE = -1
_TEMP_DELAY = -1
_KV = 40
_MA = 40
_RANGE_WL = 1.5406
_3DPLANE = 0
_V4_ADDITIONALDETECTOR = 257
_V4_PSD2THETA = 3.4228
_V4_PSDCHANNEL1 = 0
_V4_PSDAPERTURE = 12.68
_V4_PSDTYPE = 5
_V4_PSDFIXED = 0
_V4_COUNTERS_MASK = 4096
_V4_DRIVES_MASK = 0
_V4_ENCODERS_MASK = 0
_2THETACOUNTS = 1
; 2THETA  PSD
   5.0000        146
   5.1858        133
   5.3715        129
   5.5573        130
   5.7430         83
   5.9288        126
   6.1145         94
   6.3003         99
   6.4860         97
   6.6718         89
   6.8576         85
   7.0433         77
   7.2291         74
   7.4148         87
   7.6006         86
   7.7863         77
   7.9721         85
   8.1579         99
   8.3436         88
   8.5294        117
   8.7151         94
   8.9009         96
   9.0866        110
   9.2724        115
   9.4581        110
   9.6439        110
   9.8297        130
  10.0154        105
  10.2012        110
  10.3869        118
  10.5727        119
  10.7584        116
  10.9442        124
  11.1299        112
  11.3157        118
  11.5015         97
  11.6872        105
  11.8730        114
  12.0587        119
  12.2445        104
  12.4302        102
  12.6160        124
  12.8018        100
  12.9875        104
  13.1733         98
  13.3590         83
  13.5448        102
  13.7305         96
  13.9163         88
  14.1020         88
  14.2878         95
  14.4736         77
  14.6593         80
  14.8451         88
  15.0308         72
  15.2166         67
  15.4023         84
  15.5881         72
  15.7738         92
  15.9596         81
  16.1454         83
  16.3311         96
  16.5169         88
  16.7026         93
  16.8884         77
  17.0741         84
  17.2599         82
  17.4457         86
  17.6314         66
  17.8172         76
  18.0029         85
  18.1887         71
  18.3744         97
  18.5602         66
  18.7459         91
  18.9317         79
  19.1175         96
  19.3032         78
  19.4890         90
  19.6747         94
  19.8605         89
  20.0462         85
  20.2320         83
  20.4177        107
  20.6035         85
  20.7893         89
  20.9750         89
  21.1608        117
  21.3465        261
  21.5323        102
  21.7180        108
  21.9038         89
  22.0896        103
  22.2753        100
  22.4611         88
  22.6468         84
  22.8326        100
  23.0183        126
  23.2041        110
  23.3898        102
  23.5756        104
  23.7614         96
  23.9471        101
  24.1329         88
  24.3186        118
  24.5044        101
  24.6901        105
  24.8759         89
  25.0616         97
  25.2474        100
  25.4332         83
  25.6189         89
  25.8047         82
  25.9904        100
  26.1762        103
  26.3619         85
  26.5477         94
  26.7335         97
  26.9192         96
  27.1050        106
  27.2907        105
  27.4765         96
  27.6622        102
  27.8480         85
  28.0337         91
  28.2195         99
  28.4053         84
  28.5910         75
  28.7768         81
  28.9625         95
  29.1483         85
  29.3340         80
  29.5198         86
  29.7055         87
  29.8913         78
  30.0771         81
  30.2628         80
  30.4486        118
  30.6343         72
  30.8201         75
  31.0058         68
  31.1916         70
  31.3774         82
  31.5631         82
  31.7489         63
  31.9346         65
  32.1204         74
  32.3061         74
  32.4919         88
  32.6776         63
  32.8634         64
  33.0492         51
  33.2349         58
  33.4207         65
  33.6064         47
  33.7922         54
  33.9779         52
  34.1637         48
  34.3494         51
  34.5352         48
  34.7210         82
  34.9067         70
  35.0925         56
  35.2782         34
  35.4640         53
  35.6497         55
  35.8355         39
  36.0213         43
  36.2070         54
  36.3928         47
  36.5785         43
  36.7643         34
  36.9500         43
  37.1358         51
  37.3215         46
  37.5073         61
  37.6931         48
  37.8788         36
  38.0646         41
  38.2503         36
  38.4361         44
  38.6218         41
  38.8076         43
  38.9933         46
  39.1791         39
  39.3649         49
  39.5506         49
  39.7364         25
  39.9221         43
  40.1079         28
  40.2936         34
  40.4794         29
  40.6652         43
  40.8509         40
  41.0367         51
  41.2224         32
  41.4082         37
  41.5939         45
  41.7797         41
  41.9654         38
  42.1512         34
  42.3370         34
  42.5227         39
  42.7085         33
  42.8942         40
  43.0800         31
  43.2657         42
  43.4515         43
  43.6372         48
  43.8230         33
  44.0088         26
  44.1945         39
  44.3803         33
  44.5660         37
  44.7518         41
  44.9375         31
  45.1233         30
  45.3091         37
  45.4948         32
  45.6806         38
  45.8663         35
  46.0521         35
  46.2378         36
  46.4236         44
  46.6093         34
  46.7951         42
  46.9809         38
  47.1666         31
  47.3524         39
  47.5381         32
  47.7239         32
  47.9096         29
  48.0954         28
  48.2811         28
  48.4669         30
  48.6527         30
  48.8384         34
  49.0242         42
  49.2099         40
  49.3957         40
  49.5814         32
  49.7672         38
  49.9530         31
  50.1387         32
  50.3245         27
  50.5102         38
  50.6960         37
  50.8817         28
  51.0675         23
  51.2532         20
  51.4390         46
  51.6248         30
  51.8105         42
  51.9963         32
  52.1820         24
  52.3678         36
  52.5535         38
  52.7393         27
  52.9250         33
  53.1108         20
  53.2966         27
  53.4823         25
  53.6681         38
  53.8538         28
  54.0396         25
  54.2253         34
  54.4111         27
  54.5969         23
  54.7826         32
  54.9684         38
  55.1541         31
  55.3399         25
  55.5256         24
  55.7114         26
  55.8971         21
  56.0829         49
  56.2687         32
  56.4544         33
  56.6402         29
  56.8259         25
  57.0117         31
  57.1974         37
  57.3832         26
  57.5689         23
  57.7547         36
  57.9405         23
  58.1262         24
  58.3120         32
  58.4977         22
  58.6835         19
  58.8692         31
  59.0550         39
  59.2408         31
  59.4265         29
  59.6123         33
  59.7980         26
  59.9838         10
  60.0024         24