Folder: xrd_clustering/notebooks/data/xrd_data

Note: README.txt
Installation:

git clone git@github.com:hoidn/xrd_clustering.git
cd xrd_clustering/
git submodule update --init --recursive
python setup.py install

File: ML_20220718_2_SJD_4_LaB6-2min.uxd
; (content of file Y:\Sam\Apurva-07-20-2022\puck4\ML_20220718_2_SJD_0_LaB6-2min.raw)
_FILEVERSION = 3
_SAMPLE = ML_20220718_2_SJD_0_LaB6-2mi
_+SAMPLE =
_SITE = USA
_USER = Administrator
_GONIOMETER_CODE = 20
; Goniometer : D8 theta/2theta, stage : Unknown
_ATTACHMENTS_CODE = 0
_GONIOMETER_RADIUS = 200.5
_FIXED_DIVSLIT = 0.6
_FIXED_SAMPLESLIT = 0
_SOLLER_SLITS = 2
_FIXED_DETSLIT = 9.55
_MONOCHROMATOR = 0
; Incident beam monochromator : None
_SOLLER_SLITS_2 = N
_THIN_FILM = N
_BETA_FILTER = Y
_FIXED_ANTISLIT = 5.89
_ANALYZER_CODE = 0
; Received beam analyzer : None
_DATEMEASURED = "21-Jul-2022 02:51:30"
_WL_UNIT = A
_WL1 = 1.5406
_WL2 = 1.54439
_WL3 = 1.39222
_WLRATIO = 0.5
_ANODE = Cu
_V4_INF_CREATOR = XRDWizard
_V4_INF_CREATOR_VERSION = V2.9.0.22
_V4_INF_WIZARD_VERSION = V2.9.0.22
_V4_INF_WIZARD_ADDINS = V2.9.0.22
_V4_INF_WIZARD_DOCTYPE = XRD
_V4_INF_OSUSER = McQueenLab
_V4_INF_USER = Administrator
_V4_INF_SITE = USA
_V4_INF_SAMPLEID = ML_20220718_2_SJD_0_LaB6-2mi

; Data for range 1
_DRIVE = COUPLED
_STEPTIME = 5.64
_STEPSIZE = 0.0185756
_STEPMODE = C
_START = 5
_THETA = 2.5
_2THETA = 5
_KHI = 0
_PHI = 0
_X = 0
_Y = 0
_Z = 0
_DETECTOR = 5
; Detector type : Unknown
_DETECTORSLIT = unkn
_AUX1 = 0
_AUX2 = 0
_AUX3 = 0
_TIMESTARTED = 15
_TEMP_RATE = -1
_TEMP_DELAY = -1
_KV = 40
_MA = 40
_RANGE_WL = 1.5406
_3DPLANE = 0
_V4_ADDITIONALDETECTOR = 257
_V4_PSD2THETA = 3.3704
_V4_PSDCHANNEL1 = 0
_V4_PSDAPERTURE = 12.68
_V4_PSDTYPE = 5
_V4_PSDFIXED = 0
_V4_COUNTERS_MASK = 4096
_V4_DRIVES_MASK = 0
_V4_ENCODERS_MASK = 0
_2THETACOUNTS = 1
; 2THETA  PSD
   5.0000        153
   5.1858        129
   5.3715        117
   5.5573         94
   5.7430        106
   5.9288        104
   6.1145         87
   6.3003        101
   6.4860         94
   6.6718         89
   6.8576         92
   7.0433         77
   7.2291         66
   7.4148         87
   7.6006         84
   7.7863         80
   7.9721         67
   8.1579         92
   8.3436         98
   8.5294        103
   8.7151         98
   8.9009         85
   9.0866        113
   9.2724        111
   9.4581        101
   9.6439        109
   9.8297        120
  10.0154        118
  10.2012         98
  10.3869        106
  10.5727        123
  10.7584        120
  10.9442        108
  11.1299        108
  11.3157        130
  11.5015         98
  11.6872         90
  11.8730        106
  12.0587        107
  12.2445        104
  12.4302        102
  12.6160        116
  12.8018         80
  12.9875         90
  13.1733         87
  13.3590         92
  13.5448         91
  13.7305         96
  13.9163         97
  14.1020         86
  14.2878         80
  14.4736         89
  14.6593         85
  14.8451         60
  15.0308         96
  15.2166         83
  15.4023         89
  15.5881         87
  15.7738         82
  15.9596         68
  16.1454         67
  16.3311         88
  16.5169         84
  16.7026         74
  16.8884         96
  17.0741         77
  17.2599         82
  17.4457         68
  17.6314         73
  17.8172         87
  18.0029         77
  18.1887         74
  18.3744         72
  18.5602         76
  18.7459         93
  18.9317         89
  19.1175         89
  19.3032         66
  19.4890        101
  19.6747         72
  19.8605        100
  20.0462         86
  20.2320         93
  20.4177         87
  20.6035         87
  20.7893         95
  20.9750         94
  21.1608        103
  21.3465        247
  21.5323        103
  21.7180         88
  21.9038         78
  22.0896         89
  22.2753         90
  22.4611        109
  22.6468        103
  22.8326         90
  23.0183         95
  23.2041        113
  23.3898        102
  23.5756         88
  23.7614         90
  23.9471         92
  24.1329        103
  24.3186        104
  24.5044        100
  24.6901        107
  24.8759         89
  25.0616         91
  25.2474        111
  25.4332        101
  25.6189        107
  25.8047         89
  25.9904         87
  26.1762         86
  26.3619         95
  26.5477         90
  26.7335         91
  26.9192         87
  27.1050        110
  27.2907         91
  27.4765         96
  27.6622         73
  27.8480         75
  28.0337         90
  28.2195         88
  28.4053         74
  28.5910         87
  28.7768         86
  28.9625         81
  29.1483         84
  29.3340         87
  29.5198        103
  29.7055         78
  29.8913         80
  30.0771         89
  30.2628         83
  30.4486        105
  30.6343         69
  30.8201         70
  31.0058         80
  31.1916         57
  31.3774         64
  31.5631         69
  31.7489         69
  31.9346         57
  32.1204         73
  32.3061         46
  32.4919         64
  32.6776         69
  32.8634         56
  33.0492         66
  33.2349         48
  33.4207         54
  33.6064         52
  33.7922         66
  33.9779         47
  34.1637         58
  34.3494         62
  34.5352         68
  34.7210         77
  34.9067         52
  35.0925         49
  35.2782         48
  35.4640         36
  35.6497         47
  35.8355         33
  36.0213         40
  36.2070         51
  36.3928         43
  36.5785         48
  36.7643         56
  36.9500         46
  37.1358         41
  37.3215         41
  37.5073         71
  37.6931         44
  37.8788         43
  38.0646         38
  38.2503         36
  38.4361         32
  38.6218         40
  38.8076         39
  38.9933         31
  39.1791         37
  39.3649         46
  39.5506         46
  39.7364         52
  39.9221         47
  40.1079         25
  40.2936         34
  40.4794         37
  40.6652         39
  40.8509         38
  41.0367         45
  41.2224         37
  41.4082         48
  41.5939         34
  41.7797         44
  41.9654         27
  42.1512         36
  42.3370         44
  42.5227         36
  42.7085         40
  42.8942         36
  43.0800         43
  43.2657         35
  43.4515         58
  43.6372         32
  43.8230         45
  44.0088         38
  44.1945         32
  44.3803         42
  44.5660         42
  44.7518         48
  44.9375         33
  45.1233         34
  45.3091         32
  45.4948         32
  45.6806         36
  45.8663         33
  46.0521         32
  46.2378         32
  46.4236         28
  46.6093         32
  46.7951         29
  46.9809         40
  47.1666         27
  47.3524         25
  47.5381         33
  47.7239         25
  47.9096         24
  48.0954         36
  48.2811         30
  48.4669         39
  48.6527         34
  48.8384         28
  49.0242         35
  49.2099         40
  49.3957         31
  49.5814         30
  49.7672         39
  49.9530         28
  50.1387         50
  50.3245         37
  50.5102         29
  50.6960         28
  50.8817         39
  51.0675         27
  51.2532         33
  51.4390         36
  51.6248         56
  51.8105         30
  51.9963         44
  52.1820         35
  52.3678         36
  52.5535         25
  52.7393         39
  52.9250         35
  53.1108         27
  53.2966         36
  53.4823         24
  53.6681         32
  53.8538         30
  54.0396         39
  54.2253         27
  54.4111         34
  54.5969         24
  54.7826         30
  54.9684         40
  55.1541         26
  55.3399         30
  55.5256         41
  55.7114         31
  55.8971         36
  56.0829         13
  56.2687         30
  56.4544         25
  56.6402         17
  56.8259         20
  57.0117         29
  57.1974         31
  57.3832         31
  57.5689         22
  57.7547         25
  57.9405         15
  58.1262         23
  58.3120         31
  58.4977         18
  58.6835         23
  58.8692         42
  59.0550         31
  59.2408         27
  59.4265         37
  59.6123         33
  59.7980         27
  59.9838         18
  60.0024         23

File: ML_20220718_5_SJD_4_LaB6-2min.csv
;,2THETA,
5.0000,135
5.1858,120
5.3715,99
5.5573,114
5.7430,96
5.9288,111
6.1145,84
6.3003,108
6.4860,87
6.6718,87
6.8576,86
7.0433,77
7.2291,65
7.4148,91
7.6006,63
7.7863,79
7.9721,88
8.1579,98
8.3436,97
8.5294,95
8.7151,99
8.9009,88
9.0866,112
9.2724,119
9.4581,125
9.6439,109
9.8297,123
10.0154,119
10.2012,108
10.3869,126
10.5727,131
10.7584,103
10.9442,129
11.1299,117
11.3157,118
11.5015,116
11.6872,110
11.8730,110
12.0587,120
12.2445,132
12.4302,123
12.6160,100
12.8018,98
12.9875,87
13.1733,113
13.3590,100
13.5448,97
13.7305,99
13.9163,91
14.1020,90
14.2878,102
14.4736,85
14.6593,77
14.8451,89
15.0308,76
15.2166,95
15.4023,85
15.5881,70
15.7738,76
15.9596,89
16.1454,77
16.3311,89
16.5169,77
16.7026,78
16.8884,71
17.0741,90
17.2599,96
17.4457,69
17.6314,82
17.8172,66
18.0029,79
18.1887,84
18.3744,83
18.5602,96
18.7459,84
18.9317,83
19.1175,83
19.3032,82
19.4890,79
19.6747,94
19.8605,101
20.0462,79
20.2320,82
20.4177,84
20.6035,91
20.7893,79
20.9750,81
21.1608,127
21.3465,243
21.5323,92
21.7180,96
21.9038,85
22.0896,113
22.2753,89
22.4611,95
22.6468,112
22.8326,95
23.0183,99
23.2041,105
23.3898,111
23.5756,95
23.7614,109
23.9471,97
24.1329,102
24.3186,112
24.5044,108
24.6901,75
24.8759,111
25.0616,103
25.2474,99
25.4332,99
25.6189,100
25.8047,84
25.9904,107
26.1762,97
26.3619,89
26.5477,103
26.7335,79
26.9192,87
27.1050,100
27.2907,115
27.4765,87
27.6622,85
27.8480,77
28.0337,92
28.2195,91
28.4053,70
28.5910,91
28.7768,64
28.9625,92
29.1483,95
29.3340,90
29.5198,84
29.7055,74
29.8913,73
30.0771,79
30.2628,84
30.4486,136
30.6343,79
30.8201,72
31.0058,79
31.1916,86
31.3774,68
31.5631,74
31.7489,74
31.9346,60
32.1204,66
32.3061,55
32.4919,66
32.6776,61
32.8634,63
33.0492,61
33.2349,53
33.4207,67
33.6064,45
33.7922,50
33.9779,70
34.1637,52
34.3494,60
34.5352,47
34.7210,76
34.9067,47
35.0925,65
35.2782,45
35.4640,44
35.6497,50
35.8355,42
36.0213,54
36.2070,59
36.3928,45
36.5785,52
36.7643,66
36.9500,49
37.1358,50
37.3215,41
37.5073,46
37.6931,36
37.8788,36
38.0646,40
38.2503,36
38.4361,45
38.6218,33
38.8076,45
38.9933,51
39.1791,39
39.3649,37
39.5506,38
39.7364,36
39.9221,30
40.1079,54
40.2936,29
40.4794,28
40.6652,43
40.8509,43
41.0367,43
41.2224,33
41.4082,45
41.5939,38
41.7797,38
41.9654,39
42.1512,37
42.3370,45
42.5227,40
42.7085,36
42.8942,38
43.0800,44
43.2657,42
43.4515,44
43.6372,50
43.8230,28
44.0088,32
44.1945,47
44.3803,37
44.5660,55
44.7518,34
44.9375,41
45.1233,47
45.3091,32
45.4948,40
45.6806,37
45.8663,27
46.0521,32
46.2378,32
46.4236,25
46.6093,38
46.7951,24
46.9809,21
47.1666,31
47.3524,31
47.5381,39
47.7239,33
47.9096,29
48.0954,28
48.2811,22
48.4669,26
48.6527,33
48.8384,39
49.0242,43
49.2099,40
49.3957,37
49.5814,25
49.7672,28
49.9530,27
50.1387,30
50.3245,25
50.5102,30
50.6960,26
50.8817,31
51.0675,28
51.2532,30
51.4390,28
51.6248,34
51.8105,25
51.9963,36
52.1820,28
52.3678,29
52.5535,28
52.7393,32
52.9250,29
53.1108,39
53.2966,29
53.4823,28
53.6681,30
53.8538,31
54.0396,25
54.2253,26
54.4111,31
54.5969,29
54.7826,22
54.9684,35
55.1541,27
55.3399,24
55.5256,31
55.7114,22
55.8971,30
56.0829,30
56.2687,25
56.4544,29
56.6402,35
56.8259,16
57.0117,29
57.1974,16
57.3832,22
57.5689,27
57.7547,30
57.9405,33
58.1262,33
58.3120,30
58.4977,26
58.6835,21
58.8692,33
59.0550,24
59.2408,22
59.4265,24
59.6123,25
59.7980,27
59.9838,31
60.0024,28

File: ML_20220718_6_SJD_4_LaB6-2min.csv
;,2THETA,
5.0000,130
5.1858,117
5.3715,109
5.5573,108
5.7430,87
5.9288,98
6.1145,91
6.3003,97
6.4860,79
6.6718,94
6.8576,70
7.0433,87
7.2291,77
7.4148,72
7.6006,94
7.7863,97
7.9721,90
8.1579,94
8.3436,117
8.5294,98
8.7151,121
8.9009,101
9.0866,97
9.2724,98
9.4581,119
9.6439,101
9.8297,125
10.0154,104
10.2012,121
10.3869,120
10.5727,117
10.7584,119
10.9442,127
11.1299,127
11.3157,121
11.5015,137
11.6872,121
11.8730,141
12.0587,116
12.2445,115
12.4302,110
12.6160,107
12.8018,91
12.9875,106
13.1733,89
13.3590,86
13.5448,97
13.7305,89
13.9163,96
14.1020,108
14.2878,98
14.4736,82
14.6593,88
14.8451,99
15.0308,92
15.2166,86
15.4023,70
15.5881,64
15.7738,81
15.9596,78
16.1454,77
16.3311,90
16.5169,96
16.7026,78
16.8884,84
17.0741,88
17.2599,99
17.4457,73
17.6314,84
17.8172,86
18.0029,82
18.1887,82
18.3744,80
18.5602,83
18.7459,87
18.9317,83
19.1175,78
19.3032,88
19.4890,78
19.6747,111
19.8605,84
20.0462,94
20.2320,100
20.4177,87
20.6035,94
20.7893,78
20.9750,97
21.1608,126
21.3465,250
21.5323,98
21.7180,117
21.9038,91
22.0896,90
22.2753,96
22.4611,79
22.6468,107
22.8326,84
23.0183,76
23.2041,99
23.3898,104
23.5756,110
23.7614,106
23.9471,108
24.1329,76
24.3186,111
24.5044,77
24.6901,95
24.8759,97
25.0616,95
25.2474,98
25.4332,86
25.6189,106
25.8047,91
25.9904,85
26.1762,110
26.3619,99
26.5477,93
26.7335,69
26.9192,92
27.1050,101
27.2907,109
27.4765,97
27.6622,87
27.8480,69
28.0337,83
28.2195,88
28.4053,97
28.5910,90
28.7768,73
28.9625,76
29.1483,96
29.3340,73
29.5198,77
29.7055,81
29.8913,82
30.0771,94
30.2628,83
30.4486,98
30.6343,78
30.8201,64
31.0058,76
31.1916,61
31.3774,77
31.5631,61
31.7489,70
31.9346,72
32.1204,73
32.3061,69
32.4919,68
32.6776,53
32.8634,66
33.0492,52
33.2349,65
33.4207,52
33.6064,57
33.7922,42
33.9779,68
34.1637,43
34.3494,54
34.5352,63
34.7210,77
34.9067,50
35.0925,58
35.2782,64
35.4640,47
35.6497,43
35.8355,39
36.0213,51
36.2070,50
36.3928,35
36.5785,40
36.7643,46
36.9500,49
37.1358,35
37.3215,37
37.5073,47
37.6931,40
37.8788,43
38.0646,53
38.2503,35
38.4361,43
38.6218,43
38.8076,52
38.9933,36
39.1791,36
39.3649,41
39.5506,43
39.7364,46
39.9221,33
40.1079,41
40.2936,51
40.4794,34
40.6652,39
40.8509,31
41.0367,42
41.2224,44
41.4082,40
41.5939,43
41.7797,36
41.9654,36
42.1512,35
42.3370,50
42.5227,40
42.7085,39
42.8942,38
43.0800,27
43.2657,34
43.4515,59
43.6372,53
43.8230,43
44.0088,32
44.1945,37
44.3803,44
44.5660,29
44.7518,29
44.9375,24
45.1233,33
45.3091,41
45.4948,40
45.6806,29
45.8663,27
46.0521,29
46.2378,31
46.4236,37
46.6093,34
46.7951,47
46.9809,26
47.1666,31
47.3524,33
47.5381,35
47.7239,28
47.9096,29
48.0954,32
48.2811,21
48.4669,25
48.6527,36
48.8384,30
49.0242,34
49.2099,35
49.3957,28
49.5814,36
49.7672,27
49.9530,23
50.1387,39
50.3245,30
50.5102,33
50.6960,25
50.8817,36
51.0675,21
51.2532,25
51.4390,43
51.6248,26
51.8105,37
51.9963,34
52.1820,26
52.3678,30
52.5535,30
52.7393,24
52.9250,31
53.1108,27
53.2966,31
53.4823,16
53.6681,36
53.8538,27
54.0396,40
54.2253,38
54.4111,26
54.5969,19
54.7826,28
54.9684,25
55.1541,31
55.3399,26
55.5256,25
55.7114,27
55.8971,21
56.0829,22
56.2687,22
56.4544,36
56.6402,23
56.8259,29
57.0117,29
57.1974,42
57.3832,33
57.5689,17
57.7547,30
57.9405,33
58.1262,28
58.3120,26
58.4977,35
58.6835,25
58.8692,24
59.0550,44
59.2408,29
59.4265,20
59.6123,27
59.7980,25
59.9838,32
60.0024,29

File: ML_20220718_7_SJD_4_LaB6-2min.csv
;,2THETA,
5.0000,139
5.1858,113
5.3715,120
5.5573,121
5.7430,110
5.9288,95
6.1145,87
6.3003,103
6.4860,77
6.6718,88
6.8576,86
7.0433,101
7.2291,71
7.4148,79
7.6006,95
7.7863,91
7.9721,92
8.1579,80
8.3436,106
8.5294,103
8.7151,119
8.9009,105
9.0866,103
9.2724,106
9.4581,118
9.6439,110
9.8297,97
10.0154,134
10.2012,120
10.3869,99
10.5727,125
10.7584,126
10.9442,110
11.1299,121
11.3157,124
11.5015,112
11.6872,111
11.8730,119
12.0587,115
12.2445,119
12.4302,84
12.6160,103
12.8018,87
12.9875,103
13.1733,102
13.3590,112
13.5448,119
13.7305,79
13.9163,68
14.1020,102
14.2878,83
14.4736,84
14.6593,96
14.8451,79
15.0308,89
15.2166,71
15.4023,86
15.5881,76
15.7738,70
15.9596,76
16.1454,80
16.3311,69
16.5169,72
16.7026,89
16.8884,64
17.0741,90
17.2599,64
17.4457,72
17.6314,89
17.8172,78
18.0029,87
18.1887,89
18.3744,89
18.5602,79
18.7459,90
18.9317,81
19.1175,81
19.3032,71
19.4890,82
19.6747,91
19.8605,96
20.0462,93
20.2320,97
20.4177,79
20.6035,87
20.7893,92
20.9750,100
21.1608,112
21.3465,272
21.5323,108
21.7180,89
21.9038,83
22.0896,95
22.2753,105
22.4611,81
22.6468,92
22.8326,108
23.0183,104
23.2041,89
23.3898,97
23.5756,102
23.7614,90
23.9471,93
24.1329,114
24.3186,108
24.5044,115
24.6901,85
24.8759,101
25.0616,97
25.2474,105
25.4332,111
25.6189,94
25.8047,93
25.9904,95
26.1762,107
26.3619,100
26.5477,84
26.7335,101
26.9192,102
27.1050,93
27.2907,106
27.4765,89
27.6622,86
27.8480,96
28.0337,78
28.2195,81
28.4053,75
28.5910,95
28.7768,69
28.9625,82
29.1483,74
29.3340,88
29.5198,82
29.7055,93
29.8913,74
30.0771,71
30.2628,87
30.4486,107
30.6343,77
30.8201,86
31.0058,56
31.1916,71
31.3774,65
31.5631,82
31.7489,63
31.9346,69
32.1204,56
32.3061,68
32.4919,70
32.6776,55
32.8634,62
33.0492,62
33.2349,64
33.4207,61
33.6064,74
33.7922,56
33.9779,59
34.1637,58
34.3494,46
34.5352,58
34.7210,69
34.9067,64
35.0925,56
35.2782,41
35.4640,54
35.6497,40
35.8355,40
36.0213,39
36.2070,55
36.3928,44
36.5785,48
36.7643,44
36.9500,40
37.1358,49
37.3215,45
37.5073,62
37.6931,38
37.8788,47
38.0646,52
38.2503,49
38.4361,40
38.6218,39
38.8076,41
38.9933,51
39.1791,48
39.3649,32
39.5506,39
39.7364,42
39.9221,34
40.1079,42
40.2936,50
40.4794,36
40.6652,37
40.8509,38
41.0367,38
41.2224,28
41.4082,36
41.5939,40
41.7797,25
41.9654,37
42.1512,32
42.3370,36
42.5227,33
42.7085,31
42.8942,36
43.0800,35
43.2657,40
43.4515,43
43.6372,57
43.8230,51
44.0088,40
44.1945,32
44.3803,42
44.5660,44
44.7518,41
44.9375,36
45.1233,27
45.3091,30
45.4948,46
45.6806,37
45.8663,41
46.0521,27
46.2378,28
46.4236,37
46.6093,42
46.7951,26
46.9809,30
47.1666,36
47.3524,37
47.5381,30
47.7239,38
47.9096,21
48.0954,24
48.2811,36
48.4669,19
48.6527,35
48.8384,31
49.0242,45
49.2099,35
49.3957,28
49.5814,35
49.7672,32
49.9530,25
50.1387,30
50.3245,29
50.5102,26
50.6960,36
50.8817,29
51.0675,25
51.2532,30
51.4390,29
51.6248,30
51.8105,23
51.9963,26
52.1820,26
52.3678,24
52.5535,28
52.7393,32
52.9250,32
53.1108,28
53.2966,32
53.4823,24
53.6681,27
53.8538,30
54.0396,34
54.2253,28
54.4111,39
54.5969,19
54.7826,24
54.9684,22
55.1541,30
55.3399,16
55.5256,26
55.7114,28
55.8971,18
56.0829,29
56.2687,35
56.4544,26
56.6402,36
56.8259,30
57.0117,20
57.1974,25
57.3832,23
57.5689,26
57.7547,19
57.9405,32
58.1262,24
58.3120,24
58.4977,29
58.6835,22
58.8692,25
59.0550,21
59.2408,25
59.4265,27
59.6123,28
59.7980,26
59.9838,20
60.0024,32

File: ML_20220718_8_SJD_4_LaB6-2min.csv
;,2THETA,
5.0000,129
5.1858,131
5.3715,123
5.5573,96
5.7430,99
5.9288,106
6.1145,114
6.3003,99
6.4860,97
6.6718,98
6.8576,85
7.0433,81
7.2291,88
7.4148,87
7.6006,82
7.7863,82
7.9721,88
8.1579,111
8.3436,91
8.5294,93
8.7151,97
8.9009,89
9.0866,92
9.2724,116
9.4581,121
9.6439,124
9.8297,138
10.0154,137
10.2012,120
10.3869,126
10.5727,109
10.7584,108
10.9442,132
11.1299,131
11.3157,105
11.5015,125
11.6872,135
11.8730,103
12.0587,120
12.2445,94
12.4302,121
12.6160,120
12.8018,95
12.9875,91
13.1733,97
13.3590,99
13.5448,108
13.7305,79
13.9163,87
14.1020,111
14.2878,91
14.4736,74
14.6593,88
14.8451,80
15.0308,79
15.2166,73
15.4023,80
15.5881,80
15.7738,104
15.9596,71
16.1454,81
16.3311,92
16.5169,84
16.7026,85
16.8884,76
17.0741,80
17.2599,84
17.4457,94
17.6314,76
17.8172,88
18.0029,84
18.1887,93
18.3744,88
18.5602,80
18.7459,84
18.9317,83
19.1175,92
19.3032,86
19.4890,88
19.6747,84
19.8605,78
20.0462,71
20.2320,85
20.4177,88
20.6035,90
20.7893,82
20.9750,102
21.1608,121
21.3465,246
21.5323,101
21.7180,107
21.9038,88
22.0896,96
22.2753,95
22.4611,83
22.6468,88
22.8326,97
23.0183,85
23.2041,103
23.3898,101
23.5756,109
23.7614,91
23.9471,89
24.1329,100
24.3186,110
24.5044,107
24.6901,115
24.8759,104
25.0616,95
25.2474,97
25.4332,98
25.6189,101
25.8047,103
25.9904,87
26.1762,74
26.3619,83
26.5477,87
26.7335,82
26.9192,111
27.1050,108
27.2907,85
27.4765,76
27.6622,85
27.8480,88
28.0337,78
28.2195,90
28.4053,77
28.5910,87
28.7768,86
28.9625,88
29.1483,90
29.3340,80
29.5198,99
29.7055,73
29.8913,82
30.0771,75
30.2628,82
30.4486,135
30.6343,65
30.8201,73
31.0058,70
31.1916,69
31.3774,70
31.5631,78
31.7489,81
31.9346,62
32.1204,51
32.3061,67
32.4919,92
32.6776,54
32.8634,51
33.0492,54
33.2349,67
33.4207,65
33.6064,50
33.7922,63
33.9779,50
34.1637,50
34.3494,64
34.5352,57
34.7210,73
34.9067,65
35.0925,42
35.2782,52
35.4640,41
35.6497,62
35.8355,50
36.0213,53
36.2070,48
36.3928,47
36.5785,40
36.7643,45
36.9500,47
37.1358,39
37.3215,55
37.5073,70
37.6931,36
37.8788,36
38.0646,35
38.2503,44
38.4361,42
38.6218,33
38.8076,44
38.9933,46
39.1791,25
39.3649,50
39.5506,48
39.7364,40
39.9221,44
40.1079,33
40.2936,41
40.4794,41
40.6652,33
40.8509,38
41.0367,37
41.2224,43
41.4082,41
41.5939,32
41.7797,39
41.9654,40
42.1512,38
42.3370,45
42.5227,30
42.7085,39
42.8942,44
43.0800,40
43.2657,36
43.4515,54
43.6372,45
43.8230,29
44.0088,32
44.1945,37
44.3803,36
44.5660,33
44.7518,44
44.9375,35
45.1233,28
45.3091,31
45.4948,31
45.6806,28
45.8663,27
46.0521,40
46.2378,22
46.4236,29
46.6093,35
46.7951,38
46.9809,38
47.1666,32
47.3524,23
47.5381,30
47.7239,33
47.9096,24
48.0954,33
48.2811,29
48.4669,26
48.6527,34
48.8384,32
49.0242,43
49.2099,19
49.3957,20
49.5814,24
49.7672,30
49.9530,23
50.1387,34
50.3245,30
50.5102,22
50.6960,32
50.8817,36
51.0675,28
51.2532,29
51.4390,35
51.6248,28
51.8105,38
51.9963,28
52.1820,26
52.3678,24
52.5535,29
52.7393,25
52.9250,17
53.1108,29
53.2966,25
53.4823,34
53.6681,24
53.8538,35
54.0396,40
54.2253,28
54.4111,23
54.5969,30
54.7826,26
54.9684,32
55.1541,23
55.3399,21
55.5256,27
55.7114,32
55.8971,23
56.0829,26
56.2687,25
56.4544,31
56.6402,26
56.8259,26
57.0117,25
57.1974,31
57.3832,27
57.5689,28
57.7547,27
57.9405,26
58.1262,34
58.3120,24
58.4977,30
58.6835,30
58.8692,35
59.0550,33
59.2408,26
59.4265,31
59.6123,26
59.7980,27
59.9838,24
60.0024,24